onset	duration	trial_type	response_time	accuracy_binarized	tr_seconds	cueStartTime	cueEndTime	trialEndTime	fixStartTime	fixEndTime	runEndTime	stimLeft	stimTop	stimRight
11.0695919991	1.9696841239000005	shape	1.40489006042	1.0	0.8	8.03145313263	11.0221581459	13.039276123	13.0438649654	14.0378031731	n/a	oval-horizontal.bmp	oval-horizontal.bmp	oval-vertical.bmp
14.1524641514	1.8858399390999985	shape	1.33858704567	1.0	0.8	n/a	n/a	16.0383040905	16.0419609547	17.0375311375	n/a	oval-horizontal.bmp	oval-vertical.bmp	oval-vertical.bmp
17.1450841427	1.8926339148999995	shape	0.805526971817	1.0	0.8	n/a	n/a	19.0377180576	19.0412909985	20.0372560024	n/a	circle.bmp	circle.bmp	oval-vertical.bmp
20.1366250515	1.9005770682999987	shape	0.820750951767	1.0	0.8	n/a	n/a	22.0372021198	22.0407969952	23.0368990898	n/a	circle.bmp	oval-vertical.bmp	oval-vertical.bmp
23.1397180557	1.8971779347	shape	0.653136014938	1.0	0.8	n/a	n/a	25.0368959904	25.0405540466	26.0365669727	n/a	oval-horizontal.bmp	circle.bmp	circle.bmp
26.140360117	1.896720886200001	shape	0.838237047195	1.0	0.8	n/a	n/a	28.0370810032	28.0409591198	29.0365600586	n/a	oval-horizontal.bmp	oval-horizontal.bmp	circle.bmp
32.1050751209	1.9322710037000024	face	0.919734954834	1.0	0.8	29.1128909588	32.0357661247	34.0373461246	34.0418851376	35.0351359844	n/a	FAZ_23.jpg	FAZ_23.jpg	FAX_43.jpg
35.1783270836	1.8574750422999955	face	1.2192530632	1.0	0.8	n/a	n/a	37.0358021259	37.0393841267	38.0352389812	n/a	26M_FE_O.jpg	26M_FE_O.jpg	27M_FE_O.BMP
38.1621961594	1.873768806400001	face	0.870291948318	1.0	0.8	n/a	n/a	40.0359649658	40.0398030281	41.0350971222	n/a	MFX_16.jpg	MFZ_50.jpg	MFZ_50.jpg
41.1864480972	1.8490700722	face	1.60084199905	1.0	0.8	n/a	n/a	43.0355181694	43.039219141	44.034509182	n/a	09F_AN_O.jpg	09F_AN_O.jpg	10F_AN_O.jpg
44.1745460033	1.8607041836	face	0.785519123077	1.0	0.8	n/a	n/a	46.0352501869	46.0388460159	47.0343010426	n/a	38M_AN_O.BMP	39M_AN_O.jpg	39M_AN_O.jpg
47.1602220535	1.8754050732	face	1.28535509109	1.0	0.8	n/a	n/a	49.0356271267	49.0392370224	50.0344240665	n/a	FFZ_102.jpg	FFX_130.jpg	FFX_130.jpg
53.0715789795	1.962441205999994	shape	0.770277023315	1.0	0.8	50.1131050587	53.0337321758	55.0340201855	55.0388431549	56.0325109959	n/a	oval-horizontal.bmp	oval-vertical.bmp	oval-vertical.bmp
56.1367411613	1.8971428871999976	shape	0.586869955063	1.0	0.8	n/a	n/a	58.0338840485	58.0374031067	59.0329329967	n/a	circle.bmp	oval-vertical.bmp	oval-vertical.bmp
59.1396040916	1.8934149743000008	shape	1.05355095863	1.0	0.8	n/a	n/a	61.0330190659	61.0366921425	62.033146143	n/a	oval-horizontal.bmp	oval-horizontal.bmp	oval-vertical.bmp
62.1386420727	1.894227981500002	shape	0.788213968277	1.0	0.8	n/a	n/a	64.0328700542	64.0365331173	65.0324089527	n/a	oval-horizontal.bmp	oval-horizontal.bmp	circle.bmp
65.138969183	1.893879890400001	shape	0.720579147339	1.0	0.8	n/a	n/a	67.0328490734	67.0365860462	68.0320920944	n/a	circle.bmp	circle.bmp	oval-vertical.bmp
68.1386630535	1.893347978600005	shape	0.703548908234	1.0	0.8	n/a	n/a	70.0320110321	70.0356490612	71.0313630104	n/a	oval-horizontal.bmp	circle.bmp	circle.bmp
74.1179571152	1.914013862600001	face	1.16965389252	1.0	0.8	71.1101269722	74.0315611362	76.0319709778	76.036960125	77.0308570862	n/a	03F_FE_O.jpg	05F_FE_O.jpg	05F_FE_O.jpg
77.1598391533	1.8717608452000007	face	0.948465108871	1.0	0.8	n/a	n/a	79.0315999985	79.035284996	80.0306210518	n/a	FAZ_32.jpg	FAZ_32.jpg	FAX_45.jpg
80.1570341587	1.8744289874999964	face	1.14755797386	1.0	0.8	n/a	n/a	82.0314631462	82.035130024	83.0297391415	n/a	MAZ_128.jpg	MAZ_101.jpg	MAZ_101.jpg
83.1772301197	1.853473901800001	face	1.08624196053	1.0	0.8	n/a	n/a	85.0307040215	85.0341591835	86.0297210217	n/a	11F_AN_O.jpg	11F_AN_O.jpg	12F_AN_O.jpg
86.1788451672	1.8511919975000093	face	0.81961607933	1.0	0.8	n/a	n/a	88.0300371647	88.0339989662	89.0297470093	n/a	26M_FE_O.jpg	33M_FE_O.jpg	33M_FE_O.jpg
89.1590931416	1.870976924900006	face	1.33226895332	1.0	0.8	n/a	n/a	91.0300700665	91.0336921215	92.0291030407	n/a	MFZ_132.jpg	MFZ_132.jpg	MFZ_120.jpg
95.0669059753	1.9623830319000035	shape	0.803433895111	1.0	0.8	92.1112830639	95.0288670063	97.0292890072	97.0341620445	98.028370142	n/a	circle.bmp	oval-vertical.bmp	oval-vertical.bmp
98.1362211704	1.892279863599996	shape	0.838088035583	1.0	0.8	n/a	n/a	100.028501034	100.033005953	101.028237104	n/a	oval-horizontal.bmp	oval-horizontal.bmp	circle.bmp
101.139266968	1.889252185999993	shape	0.729747056961	1.0	0.8	n/a	n/a	103.028519154	103.032533169	104.027855158	n/a	oval-horizontal.bmp	oval-vertical.bmp	oval-vertical.bmp
104.134565115	1.893038034	shape	0.720216989517	1.0	0.8	n/a	n/a	106.027603149	106.031581163	107.028006077	n/a	oval-horizontal.bmp	circle.bmp	circle.bmp
107.141092062	1.886701107000008	shape	1.06334018707	1.0	0.8	n/a	n/a	109.027793169	109.031605959	110.027135134	n/a	oval-horizontal.bmp	oval-horizontal.bmp	oval-vertical.bmp
110.137290955	1.89028716	shape	0.778705120087	1.0	0.8	n/a	n/a	112.027578115	112.032078981	113.026857138	n/a	circle.bmp	circle.bmp	oval-vertical.bmp
116.082888126	1.944736957999993	face	0.920284032822	1.0	0.8	113.112558126	116.025978088	118.027625084	118.032701015	119.026247978	n/a	FAZ_23.jpg	FAZ_23.jpg	FAX_43.jpg
119.166007996	1.860768078999996	face	0.969283103943	1.0	0.8	n/a	n/a	121.026776075	121.030586958	122.025815964	n/a	26M_FE_O.jpg	26M_FE_O.jpg	27M_FE_O.BMP
122.153371096	1.8727178569999976	face	0.859791040421	1.0	0.8	n/a	n/a	124.026088953	124.030311108	125.025586128	n/a	MFZ_50.jpg	MFZ_50.jpg	MFX_16.jpg
125.178120136	1.8483078479999904	face	1.5371029377	1.0	0.8	n/a	n/a	127.026427984	127.03007412	128.024445057	n/a	10F_AN_O.jpg	09F_AN_O.jpg	09F_AN_O.jpg
128.162729025	1.8629550929999823	face	0.869548082352	1.0	0.8	n/a	n/a	130.025684118	130.029083014	131.025019169	n/a	38M_AN_O.BMP	39M_AN_O.jpg	39M_AN_O.jpg
131.153728008	1.882100105999996	face	0.949215173721	1.0	0.8	n/a	n/a	133.035828114	133.039302111	134.02495718	n/a	FFZ_102.jpg	FFX_130.jpg	FFX_130.jpg
137.061525106	1.963122844999987	shape	0.75324010849	1.0	0.8	134.112993002	137.024396181	139.024647951	139.029139996	140.023689032	n/a	oval-horizontal.bmp	oval-horizontal.bmp	oval-vertical.bmp
140.13322711	1.9024488929999848	shape	0.920829057693	1.0	0.8	n/a	n/a	142.035676003	142.039268017	143.035314083	n/a	oval-horizontal.bmp	oval-vertical.bmp	oval-vertical.bmp
143.14805007	1.8922650809999768	shape	0.687505960464	1.0	0.8	n/a	n/a	145.040315151	145.043986082	146.040071011	n/a	circle.bmp	circle.bmp	oval-vertical.bmp
146.148970127	1.8916490079999733	shape	0.657768011093	1.0	0.8	n/a	n/a	148.040619135	148.044207096	149.039489985	n/a	circle.bmp	oval-vertical.bmp	oval-vertical.bmp
149.151851177	1.888115883000012	shape	1.0076880455	1.0	0.8	n/a	n/a	151.03996706	151.043601036	152.039214134	n/a	oval-horizontal.bmp	circle.bmp	circle.bmp
152.148985147	1.890690804000002	shape	0.824403047562	1.0	0.8	n/a	n/a	154.039675951	154.043295145	155.039184093	n/a	oval-horizontal.bmp	oval-horizontal.bmp	circle.bmp
158.117782116	1.9213540549999948	face	0.956947088242	1.0	0.8	155.12859416	158.039247036	160.039136171	160.043653965	161.038153172	n/a	20M_FE_O.jpg	21M_FE_O.jpg	21M_FE_O.jpg
161.194678068	1.844548941	face	1.11750102043	0.0	0.8	n/a	n/a	163.039227009	163.04280901	164.037649155	n/a	01F_AN_O.jpg	07F_AN_O.jpg	07F_AN_O.jpg
164.170400143	1.8678848739999976	face	0.885076999664	1.0	0.8	n/a	n/a	166.038285017	166.041901112	167.037764072	n/a	FFX_139.jpg	FFZ_102.jpg	FFZ_102.jpg
167.192332983	1.8458909990000048	face	1.18741893768	1.0	0.8	n/a	n/a	169.038223982	169.041877031	170.037139177	n/a	23M_AN_O.jpg	23M_AN_O.jpg	22M_AN_O.jpg
170.170083046	1.868016004999987	face	0.905721902847	1.0	0.8	n/a	n/a	172.038099051	172.041924953	173.036975145	n/a	MAZ_146.jpg	MAZ_146.jpg	MAX_233.jpg
173.187057018	1.850317001999997	face	1.37228107452	1.0	0.8	n/a	n/a	175.03737402	175.040930986	176.036266088	n/a	15F_FE_O.jpg	15F_FE_O.jpg	16F_FE_O.jpg
179.07458806	1.9625530250000047	shape	0.904762983322	1.0	0.8	176.12797904	179.036386013	181.037141085	181.04181695	182.035843134	n/a	oval-horizontal.bmp	oval-vertical.bmp	oval-vertical.bmp
182.150624037	1.885601997000009	shape	0.706248998642	1.0	0.8	n/a	n/a	184.036226034	184.039996147	185.035173178	n/a	circle.bmp	oval-vertical.bmp	oval-vertical.bmp
185.152682066	1.8830111030000007	shape	1.02145695686	1.0	0.8	n/a	n/a	187.035693169	187.039396048	188.034986973	n/a	oval-horizontal.bmp	oval-horizontal.bmp	oval-vertical.bmp
188.153967142	1.881556988	shape	0.640169858932	0.0	0.8	n/a	n/a	190.03552413	190.039143085	191.034878016	n/a	oval-horizontal.bmp	oval-horizontal.bmp	circle.bmp
191.149531126	1.886091948000001	shape	0.754273891449	1.0	0.8	n/a	n/a	193.035623074	193.039204121	194.034216166	n/a	circle.bmp	circle.bmp	oval-vertical.bmp
194.150300026	1.884645938999995	shape	0.80291891098	1.0	0.8	n/a	n/a	196.034945965	196.038514137	197.034420013	n/a	oval-horizontal.bmp	circle.bmp	circle.bmp
200.091309071	1.942470072999981	face	1.37071204185	1.0	0.8	197.125807047	200.032974005	202.033779144	202.03828001	203.033364058	n/a	FFX_54.jpg	FFX_54.jpg	FAX_51.jpg
203.179623127	1.854015826999984	face	0.852837085724	1.0	0.8	n/a	n/a	205.033638954	205.037256002	206.032860994	n/a	40M_FE_O.BMP	41M_FE_O.jpg	41M_FE_O.jpg
206.187096119	1.8462319369999989	face	0.920315027237	1.0	0.8	n/a	n/a	208.033328056	208.036910057	209.033012152	n/a	29M_AN_O.jpg	29M_AN_O.jpg	28M_AN_O.jpg
209.165414095	1.8677189349999992	face	0.834396123886	1.0	0.8	n/a	n/a	211.03313303	211.036823034	212.032407999	n/a	FFZ_18.jpg	FFZ_29.jpg	FFZ_29.jpg
212.189563036	1.843830108999981	face	1.20411419868	1.0	0.8	n/a	n/a	214.033393145	214.036976099	215.032309055	n/a	19F_AN_O.jpg	19F_AN_O.jpg	09F_AN_O.jpg
215.166927099	1.8656558990000176	face	0.803205966949	1.0	0.8	n/a	n/a	217.032582998	217.036221981	218.032418966	n/a	MFZ_132.jpg	MFZ_7.jpg	MFZ_7.jpg
221.06904006	1.962584972000002	shape	0.76912689209	1.0	0.8	218.125828981	221.031726122	223.031625032	223.036144018	224.031551123	n/a	circle.bmp	oval-vertical.bmp	oval-vertical.bmp
224.147984982	1.883336067000016	shape	0.704248189926	1.0	0.8	n/a	n/a	226.031321049	226.03499198	227.03110218	n/a	oval-horizontal.bmp	oval-horizontal.bmp	circle.bmp
227.146980047	1.884252072000009	shape	0.7029941082	1.0	0.8	n/a	n/a	229.031232119	229.03482604	230.030362129	n/a	oval-horizontal.bmp	oval-vertical.bmp	oval-vertical.bmp
230.149623156	1.881627798000011	shape	0.887418031693	1.0	0.8	n/a	n/a	232.031250954	232.03491497	233.030568123	n/a	oval-horizontal.bmp	circle.bmp	circle.bmp
233.148925066	1.8813140389999887	shape	0.954716920853	1.0	0.8	n/a	n/a	235.030239105	235.033899069	236.029849052	n/a	oval-horizontal.bmp	oval-horizontal.bmp	oval-vertical.bmp
236.148888111	1.8811659810000088	shape	0.903884887695	1.0	0.8	n/a	n/a	238.030054092	238.033676147	239.029525042	n/a	circle.bmp	circle.bmp	oval-vertical.bmp
242.110422134	1.9199209219999889	face	1.1368598938	1.0	0.8	239.127151966	242.029553175	244.030343056	244.034819126	245.028814077	n/a	20M_FE_O.jpg	21M_FE_O.jpg	21M_FE_O.jpg
245.190639973	1.838567017999992	face	0.914966106415	1.0	0.8	n/a	n/a	247.029206991	247.03275609	248.028364182	n/a	07F_AN_O.jpg	07F_AN_O.jpg	01F_AN_O.jpg
248.164766073	1.8640670779999768	face	1.10500407219	1.0	0.8	n/a	n/a	250.028833151	250.032418013	251.02809906	n/a	FFZ_102.jpg	FFZ_102.jpg	FFX_139.jpg
251.191377163	1.837096929000012	face	0.964292049408	1.0	0.8	n/a	n/a	253.028474092	253.032426119	254.028452158	n/a	22M_AN_O.jpg	23M_AN_O.jpg	23M_AN_O.jpg
254.16677618	1.8610618120000024	face	0.801661014557	1.0	0.8	n/a	n/a	256.027837992	256.031847954	257.027309179	n/a	MAX_233.jpg	MAZ_146.jpg	MAZ_146.jpg
257.183863163	1.8445429799999715	face	1.17055296898	1.0	0.8	n/a	n/a	259.028406143	259.032000065	260.027106047	n/a	15F_FE_O.jpg	15F_FE_O.jpg	16F_FE_O.jpg
263.06449008	1.962579011999992	shape	1.16916203499	1.0	0.8	260.123023987	263.027294159	265.027069092	265.031922102	266.026723146	n/a	oval-horizontal.bmp	oval-horizontal.bmp	oval-vertical.bmp
266.145665169	1.880703926000024	shape	1.25312185287	1.0	0.8	n/a	n/a	268.026369095	268.030599117	269.026246071	n/a	oval-horizontal.bmp	oval-vertical.bmp	oval-vertical.bmp
269.148122072	1.8782360560000484	shape	0.784255027771	1.0	0.8	n/a	n/a	271.026358128	271.029798985	272.025639057	n/a	circle.bmp	circle.bmp	oval-vertical.bmp
272.147021055	1.879065037000032	shape	0.986841917038	1.0	0.8	n/a	n/a	274.026086092	274.029750109	275.026312113	n/a	circle.bmp	oval-vertical.bmp	oval-vertical.bmp
275.14837718	1.8772239689999992	shape	0.88779091835	1.0	0.8	n/a	n/a	277.025601149	277.029272079	278.025206089	n/a	oval-horizontal.bmp	circle.bmp	circle.bmp
278.144536972	1.8807401659999528	shape	1.03943586349	1.0	0.8	n/a	n/a	280.025277138	280.029035091	281.024470091	n/a	oval-horizontal.bmp	oval-horizontal.bmp	circle.bmp
284.086809158	1.938411950999977	face	1.21174693108	1.0	0.8	281.12343502	284.024420023	286.025221109	286.029811144	287.024487019	n/a	FFZ_18.jpg	FAZ_129.jpg	FAZ_129.jpg
287.199032068	1.825546025999984	face	1.1704390049	1.0	0.8	n/a	n/a	289.024578094	289.02818799	290.023607016	n/a	20M_FE_O.jpg	24M_FE_O.jpg	24M_FE_O.jpg
290.168388128	1.87244391500002	face	1.0127389431	1.0	0.8	n/a	n/a	292.040832043	292.044465065	293.040104151	n/a	FAZ_23.jpg	FAX_25.jpg	FAX_25.jpg
293.20245409	1.8221230510000053	face	0.844804048538	1.0	0.8	n/a	n/a	295.024577141	295.028249979	296.02386117	n/a	33M_FE_O.jpg	33M_FE_O.jpg	35M_FE_O.jpg
296.191615105	1.8487708570000336	face	0.869966983795	1.0	0.8	n/a	n/a	298.040385962	298.043982983	299.040091038	n/a	01F_AN_O.jpg	01F_AN_O.jpg	02F_AN_O.jpg
299.180256128	1.8596768379999844	face	1.0524559021	1.0	0.8	n/a	n/a	301.039932966	301.043570042	302.038949013	n/a	MFZ_132.jpg	MFZ_132.jpg	MFZ_120.jpg
305.075793982	1.963467121000008	shape	1.11962604523	1.0	0.8	302.139642954	305.038661957	307.039261103	307.043847084	308.038408995	n/a	oval-horizontal.bmp	oval-vertical.bmp	oval-vertical.bmp
308.161794186	1.8763918870000111	shape	0.754081964493	1.0	0.8	n/a	n/a	310.038186073	310.041779995	311.038520098	n/a	circle.bmp	oval-vertical.bmp	oval-vertical.bmp
311.165338993	1.8728721140000173	shape	0.925451993942	1.0	0.8	n/a	n/a	313.038211107	313.041790962	314.037700176	n/a	oval-horizontal.bmp	oval-horizontal.bmp	oval-vertical.bmp
314.16247201	1.8753650190000144	shape	0.736718177795	1.0	0.8	n/a	n/a	316.037837029	316.041512012	317.03770113	n/a	oval-horizontal.bmp	oval-horizontal.bmp	circle.bmp
317.163510084	1.8746850489999929	shape	0.957741975784	1.0	0.8	n/a	n/a	319.038195133	319.041751146	320.037136078	n/a	circle.bmp	circle.bmp	oval-vertical.bmp
320.161118031	1.876315116000001	shape	0.766754150391	1.0	0.8	n/a	n/a	322.037433147	322.041012049	323.036643982	n/a	oval-horizontal.bmp	circle.bmp	circle.bmp
326.124789953	1.9127931599999783	face	1.08670783043	1.0	0.8	323.140202045	326.036844015	328.037583113	328.042114019	329.036597013	n/a	17F_FE_O.jpg	18F_FE_O.jpg	18F_FE_O.jpg
329.201235056	1.8353440760000128	face	0.740798950195	1.0	0.8	n/a	n/a	331.036579132	331.040233135	332.035703182	n/a	42M_AN_O.jpg	43M_AN_O.jpg	43M_AN_O.jpg
332.203096151	1.833192826000016	face	0.923839092255	1.0	0.8	n/a	n/a	334.036288977	334.039684057	335.035170078	n/a	31M_FE_O.jpg	31M_FE_O.jpg	32M_FE_O.jpg
335.177724123	1.8580210209999564	face	0.688678979874	1.0	0.8	n/a	n/a	337.035745144	337.039150953	338.034999132	n/a	FAZ_212.jpg	FFZ_236.jpg	FFZ_236.jpg
338.208472013	1.8275001050000128	face	1.21696782112	1.0	0.8	n/a	n/a	340.035972118	340.039812088	341.034944057	n/a	06F_FE_O.jpg	06F_FE_O.jpg	08F_FE_O.jpg
341.179310083	1.8557689189999564	face	0.784789085388	1.0	0.8	n/a	n/a	343.035079002	343.038953066	344.034685135	n/a	MAZ_128.jpg	MAZ_128.jpg	MAX_39.jpg
347.071274996	1.9632871150000144	shape	0.854720830917	1.0	0.8	344.139727116	347.033954144	349.034562111	349.039061069	350.033538103	n/a	circle.bmp	oval-vertical.bmp	oval-vertical.bmp
350.16217804	1.872010945999989	shape	0.720530033112	1.0	0.8	n/a	n/a	352.034188986	352.037876129	353.032834053	n/a	oval-horizontal.bmp	oval-horizontal.bmp	circle.bmp
353.14876318	1.8831598759999792	shape	0.670747995377	1.0	0.8	n/a	n/a	355.031923056	355.034712076	356.031435013	n/a	oval-horizontal.bmp	oval-vertical.bmp	oval-vertical.bmp
356.166339159	1.8663208479999869	shape	0.603533983231	1.0	0.8	n/a	n/a	358.032660007	358.036355019	359.031984091	n/a	oval-horizontal.bmp	circle.bmp	circle.bmp
359.151226997	1.8808989530000413	shape	0.854513883591	1.0	0.8	n/a	n/a	361.03212595	361.035618067	362.031399965	n/a	oval-horizontal.bmp	oval-horizontal.bmp	oval-vertical.bmp
362.157478094	1.8744058610000136	shape	0.787468910217	1.0	0.8	n/a	n/a	364.031883955	364.035393953	365.031299114	n/a	circle.bmp	circle.bmp	oval-vertical.bmp
368.088929176	1.943280935999951	face	0.852951049805	1.0	0.8	365.127135038	368.031438112	370.032210112	370.036870956	371.030003071	n/a	FFZ_18.jpg	FAZ_129.jpg	FAZ_129.jpg
371.190124989	1.840584038999964	face	0.936002969742	1.0	0.8	n/a	n/a	373.030709028	373.03422904	374.029936075	n/a	20M_FE_O.jpg	24M_FE_O.jpg	24M_FE_O.jpg
374.170057058	1.860693932000004	face	0.885908126831	1.0	0.8	n/a	n/a	376.03075099	376.034460068	377.029829979	n/a	FAZ_23.jpg	FAX_25.jpg	FAX_25.jpg
377.188465118	1.8426508910000048	face	0.987325906754	1.0	0.8	n/a	n/a	379.031116009	379.034444094	380.030014992	n/a	33M_FE_O.jpg	33M_FE_O.jpg	35M_FE_O.jpg
380.19324398	1.8373019699999984	face	1.0005300045	1.0	0.8	n/a	n/a	382.03054595	382.034203053	383.029360056	n/a	01F_AN_O.jpg	01F_AN_O.jpg	02F_AN_O.jpg
383.167881012	1.8623340130000088	face	0.753359794617	1.0	0.8	n/a	n/a	385.030215025	385.033863068	386.029268026	394.428063154	MFZ_132.jpg	MFZ_132.jpg	MFZ_120.jpg
