onset	duration	trial_type	response_time	accuracy_binarized	tr_seconds	cueStartTime	cueEndTime	trialEndTime	fixStartTime	fixEndTime	runEndTime	stimLeft	stimTop	stimRight
11.087857008	1.9453389644	shape	1.01176285744	1.0	0.8	8.04315900803	11.0330510139	13.0331959724	13.0491349697	14.0486118793	n/a	oval-horizontal.bmp	oval-horizontal.bmp	oval-vertical.bmp
14.1655158997	1.8821549414999976	shape	0.913102865219	1.0	0.8	n/a	n/a	16.0476708412	16.0644879341	17.0476648808	n/a	oval-horizontal.bmp	oval-vertical.bmp	oval-vertical.bmp
17.158288002	1.889523983	shape	0.777495861053	1.0	0.8	n/a	n/a	19.047811985	19.0637760162	20.0424869061	n/a	circle.bmp	circle.bmp	oval-vertical.bmp
20.1588790417	1.8881039619000008	shape	0.903703927994	1.0	0.8	n/a	n/a	22.0469830036	22.0631189346	23.0459370613	n/a	circle.bmp	oval-vertical.bmp	oval-vertical.bmp
23.1604058743	1.8857171535	shape	0.887732028961	1.0	0.8	n/a	n/a	25.0461230278	25.0618989468	26.0453820229	n/a	oval-horizontal.bmp	circle.bmp	circle.bmp
26.1619229317	1.883713960599998	shape	0.921053886414	1.0	0.8	n/a	n/a	28.0456368923	28.0620079041	29.0446679592	n/a	oval-horizontal.bmp	oval-horizontal.bmp	circle.bmp
32.1102969646	1.9331889152999933	face	0.970106124878	1.0	0.8	29.1147229671	32.0436270237	34.0434858799	34.0596170425	35.0427188873	n/a	FAZ_23.jpg	FAZ_23.jpg	FAX_43.jpg
35.1919059753	1.850301980999994	face	1.13823986053	1.0	0.8	n/a	n/a	37.0422079563	37.0588698387	38.041369915	n/a	26M_FE_O.jpg	26M_FE_O.jpg	27M_FE_O.BMP
38.1756100655	1.865878820399999	face	0.910931110382	1.0	0.8	n/a	n/a	40.0414888859	40.0578279495	41.0360388756	n/a	MFX_16.jpg	MFZ_50.jpg	MFZ_50.jpg
41.1905770302	1.850086927400007	face	0.719233989716	1.0	0.8	n/a	n/a	43.0406639576	43.0570678711	44.0398659706	n/a	09F_AN_O.jpg	09F_AN_O.jpg	10F_AN_O.jpg
44.188338995	1.851738929699998	face	0.704762935638	1.0	0.8	n/a	n/a	46.0400779247	46.056730032	47.0389778614	n/a	38M_AN_O.BMP	39M_AN_O.jpg	39M_AN_O.jpg
47.1736369133	1.8658771515000008	face	1.10346794128	1.0	0.8	n/a	n/a	49.0395140648	49.0559179783	50.0384628773	n/a	FFZ_102.jpg	FFX_130.jpg	FFX_130.jpg
53.0893728733	1.9478809833999973	shape	0.8019759655	1.0	0.8	50.1114599705	53.0368618965	55.0372538567	55.0535569191	56.0364429951	n/a	oval-horizontal.bmp	oval-vertical.bmp	oval-vertical.bmp
56.1443049908	1.8918619155999965	shape	0.759343147278	1.0	0.8	n/a	n/a	58.0361669064	58.0527150631	59.0354149342	n/a	circle.bmp	oval-vertical.bmp	oval-vertical.bmp
59.1458919048	1.8894679546999955	shape	0.908519029617	1.0	0.8	n/a	n/a	61.0353598595	61.051707983	62.0473439693	n/a	oval-horizontal.bmp	oval-horizontal.bmp	oval-vertical.bmp
62.1482799053	1.886325120899997	shape	0.773797035217	1.0	0.8	n/a	n/a	64.0346050262	64.0507948399	65.0338170528	n/a	oval-horizontal.bmp	oval-horizontal.bmp	circle.bmp
65.1495070457	1.884454011999992	shape	0.921605825424	1.0	0.8	n/a	n/a	67.0339610577	67.0507628918	68.033208847	n/a	circle.bmp	circle.bmp	oval-vertical.bmp
68.1501560211	1.882899045999992	shape	1.45194911957	1.0	0.8	n/a	n/a	70.0330550671	70.0495140553	71.032392025	n/a	oval-horizontal.bmp	circle.bmp	circle.bmp
74.1488828659	1.8989801406999904	face	1.12066793442	1.0	0.8	71.1033258438	74.0476789474	76.0478630066	76.0639519691	77.0467748642	n/a	03F_FE_O.jpg	05F_FE_O.jpg	05F_FE_O.jpg
77.1801249981	1.8669779301000065	face	0.845621824265	1.0	0.8	n/a	n/a	79.0471029282	79.0628378391	80.0459959507	n/a	FAZ_32.jpg	FAZ_32.jpg	FAX_45.jpg
80.1728410721	1.8679127693000053	face	1.7532479763	1.0	0.8	n/a	n/a	82.0407538414	82.0573978424	83.0410740376	n/a	MAZ_128.jpg	MAZ_101.jpg	MAZ_101.jpg
83.1916940212	1.8535468579000136	face	1.27358293533	1.0	0.8	n/a	n/a	85.0452408791	85.0612909794	86.0444948673	n/a	11F_AN_O.jpg	11F_AN_O.jpg	12F_AN_O.jpg
86.1928839684	1.850893974300007	face	0.753973960876	1.0	0.8	n/a	n/a	88.0437779427	88.0608599186	89.0444889069	n/a	26M_FE_O.jpg	33M_FE_O.jpg	33M_FE_O.jpg
89.1769208908	1.8667390346999893	face	1.10305500031	1.0	0.8	n/a	n/a	91.0436599255	91.0601718426	92.0430109501	n/a	MFZ_132.jpg	MFZ_132.jpg	MFZ_120.jpg
95.091711998	1.9500269890000084	shape	0.802496910095	1.0	0.8	92.1166138649	95.0417468548	97.041738987	97.057653904	98.0406630039	n/a	circle.bmp	oval-vertical.bmp	oval-vertical.bmp
98.1504929066	1.889838934400004	shape	0.710386991501	1.0	0.8	n/a	n/a	100.040331841	100.056277037	101.039521933	n/a	oval-horizontal.bmp	oval-horizontal.bmp	circle.bmp
101.150471926	1.8892130850000088	shape	1.71030187607	1.0	0.8	n/a	n/a	103.039685011	103.055422068	104.035348892	n/a	oval-horizontal.bmp	oval-vertical.bmp	oval-vertical.bmp
104.152631044	1.8861708639999928	shape	1.42364001274	1.0	0.8	n/a	n/a	106.038801908	106.055372953	107.038143873	n/a	oval-horizontal.bmp	circle.bmp	circle.bmp
107.154027939	1.884392023000004	shape	1.43447303772	1.0	0.8	n/a	n/a	109.038419962	109.054669857	110.037601948	n/a	oval-horizontal.bmp	oval-horizontal.bmp	oval-vertical.bmp
110.154859066	1.8828279970000068	shape	1.28303098679	1.0	0.8	n/a	n/a	112.037687063	112.054036856	113.03697896	n/a	circle.bmp	circle.bmp	oval-vertical.bmp
116.103617907	1.931816100999996	face	0.787377119064	1.0	0.8	113.113798857	116.035348892	118.035434008	118.051661015	119.034441948	n/a	FAZ_23.jpg	FAZ_23.jpg	FAX_43.jpg
119.18530798	1.8490810389999977	face	1.03817892075	1.0	0.8	n/a	n/a	121.034389019	121.050721884	122.03362298	n/a	26M_FE_O.jpg	26M_FE_O.jpg	27M_FE_O.BMP
122.160925865	1.8844480520000104	face	0.75413608551	1.0	0.8	n/a	n/a	124.045373917	124.062484026	125.045816898	n/a	MFZ_50.jpg	MFZ_50.jpg	MFX_16.jpg
125.213456869	1.8358139989999955	face	1.12205505371	1.0	0.8	n/a	n/a	127.049270868	127.065981865	128.048691988	n/a	10F_AN_O.jpg	09F_AN_O.jpg	09F_AN_O.jpg
128.198750019	1.850579023000023	face	0.771171808243	1.0	0.8	n/a	n/a	130.049329042	130.065233946	131.047725916	n/a	38M_AN_O.BMP	39M_AN_O.jpg	39M_AN_O.jpg
131.231808901	1.8160941600000056	face	0.818843126297	1.0	0.8	n/a	n/a	133.047903061	133.064399958	134.047216892	n/a	FFZ_102.jpg	FFX_130.jpg	FFX_130.jpg
137.09788084	1.94791817700002	shape	0.800271034241	1.0	0.8	134.125630856	137.045848846	139.045799017	139.062039852	140.045207977	n/a	oval-horizontal.bmp	oval-horizontal.bmp	oval-vertical.bmp
140.162083864	1.882961034999994	shape	1.46112203598	1.0	0.8	n/a	n/a	142.045044899	142.061262846	143.044179916	n/a	oval-horizontal.bmp	oval-vertical.bmp	oval-vertical.bmp
143.15439105	1.885113001000008	shape	1.45081996918	1.0	0.8	n/a	n/a	145.039504051	145.056668043	146.039653063	n/a	circle.bmp	circle.bmp	oval-vertical.bmp
146.156774998	1.886605024000005	shape	0.69024682045	1.0	0.8	n/a	n/a	148.043380022	148.059783936	149.042666912	n/a	circle.bmp	oval-vertical.bmp	oval-vertical.bmp
149.158576012	1.88467192600001	shape	0.869271993637	1.0	0.8	n/a	n/a	151.043247938	151.059583902	152.041993856	n/a	oval-horizontal.bmp	circle.bmp	circle.bmp
152.160289049	1.8817389010000056	shape	0.734594106674	1.0	0.8	n/a	n/a	154.04202795	154.058261871	155.04082489	n/a	oval-horizontal.bmp	oval-horizontal.bmp	circle.bmp
158.129643917	1.9102079869999784	face	1.43049383163	1.0	0.8	155.119673014	158.03965807	160.039851904	160.05555892	161.038651943	n/a	20M_FE_O.jpg	21M_FE_O.jpg	21M_FE_O.jpg
161.197764874	1.8405179970000063	face	0.944239139557	1.0	0.8	n/a	n/a	163.038282871	163.055495977	164.03784585	n/a	01F_AN_O.jpg	07F_AN_O.jpg	07F_AN_O.jpg
164.171514034	1.862536906999992	face	0.770200014114	1.0	0.8	n/a	n/a	166.034050941	166.050387859	167.034174919	n/a	FFX_139.jpg	FFZ_102.jpg	FFZ_102.jpg
167.204189062	1.8331549170000017	face	0.63903594017	1.0	0.8	n/a	n/a	169.037343979	169.053688049	170.03578496	n/a	23M_AN_O.jpg	23M_AN_O.jpg	22M_AN_O.jpg
170.169394016	1.867153882999986	face	0.821012973785	1.0	0.8	n/a	n/a	172.036547899	172.052851915	173.036098957	n/a	MAZ_146.jpg	MAZ_146.jpg	MAX_233.jpg
173.203088045	1.8316040040000128	face	1.3509979248	1.0	0.8	n/a	n/a	175.034692049	175.051420927	176.034944057	n/a	15F_FE_O.jpg	15F_FE_O.jpg	16F_FE_O.jpg
179.084915876	1.9486889840000003	shape	0.769598960876	1.0	0.8	176.116456032	179.033623934	181.03360486	181.049922943	182.032352924	n/a	oval-horizontal.bmp	oval-vertical.bmp	oval-vertical.bmp
182.142183065	1.907428979999992	shape	0.778568983078	1.0	0.8	n/a	n/a	184.049612045	184.065710068	185.047745943	n/a	circle.bmp	oval-vertical.bmp	oval-vertical.bmp
185.164629936	1.88011312499998	shape	0.704218864441	1.0	0.8	n/a	n/a	187.044743061	187.060708046	188.047701836	n/a	oval-horizontal.bmp	oval-horizontal.bmp	oval-vertical.bmp
188.17890501	1.8691699510000035	shape	0.672176837921	1.0	0.8	n/a	n/a	190.048074961	190.064038038	191.047103882	n/a	oval-horizontal.bmp	oval-horizontal.bmp	circle.bmp
191.164541006	1.8827090259999864	shape	0.705070018768	1.0	0.8	n/a	n/a	193.047250032	193.063251972	194.046182871	n/a	circle.bmp	circle.bmp	oval-vertical.bmp
194.163831949	1.8823709489999767	shape	0.684295892715	1.0	0.8	n/a	n/a	196.046202898	196.062806845	197.044846058	n/a	oval-horizontal.bmp	circle.bmp	circle.bmp
200.112563848	1.931977988	face	0.769715070724	1.0	0.8	197.131813049	200.044090986	202.044541836	202.060476065	203.043174028	n/a	FFX_54.jpg	FFX_54.jpg	FAX_51.jpg
203.194170952	1.849112034000001	face	0.636379003525	1.0	0.8	n/a	n/a	205.043282986	205.059438944	206.036898851	n/a	40M_FE_O.BMP	41M_FE_O.jpg	41M_FE_O.jpg
206.192286968	1.8463189600000192	face	0.619750976562	1.0	0.8	n/a	n/a	208.038605928	208.055341959	209.041619062	n/a	29M_AN_O.jpg	29M_AN_O.jpg	28M_AN_O.jpg
209.189826965	1.851841926999981	face	0.68979716301	1.0	0.8	n/a	n/a	211.041668892	211.059368849	212.041099072	n/a	FFZ_18.jpg	FFZ_29.jpg	FFZ_29.jpg
212.20716095	1.833898067000007	face	0.850032091141	1.0	0.8	n/a	n/a	214.041059017	214.057337999	215.040467024	n/a	19F_AN_O.jpg	19F_AN_O.jpg	09F_AN_O.jpg
215.175384998	1.8643429280000128	face	0.702355861664	1.0	0.8	n/a	n/a	217.039727926	217.056725979	218.038857937	n/a	MFZ_132.jpg	MFZ_7.jpg	MFZ_7.jpg
221.089776039	1.94830489200001	shape	0.71894288063	1.0	0.8	218.122803926	221.037612915	223.038080931	223.054226875	224.037350893	n/a	circle.bmp	oval-vertical.bmp	oval-vertical.bmp
224.153863907	1.883026123000008	shape	0.62925696373	1.0	0.8	n/a	n/a	226.03689003	226.05351305	227.036329985	n/a	oval-horizontal.bmp	oval-horizontal.bmp	circle.bmp
227.165330887	1.884489059000004	shape	0.688025951385	1.0	0.8	n/a	n/a	229.049819946	229.065917969	230.035429955	n/a	oval-horizontal.bmp	oval-vertical.bmp	oval-vertical.bmp
230.166481972	1.8692219249999769	shape	0.772540092468	1.0	0.8	n/a	n/a	232.035703897	232.052134037	233.034930944	n/a	oval-horizontal.bmp	circle.bmp	circle.bmp
233.168843985	1.8660249710000016	shape	0.684207201004	1.0	0.8	n/a	n/a	235.034868956	235.051432848	236.034198046	n/a	oval-horizontal.bmp	oval-horizontal.bmp	oval-vertical.bmp
236.16928792	1.865059137000003	shape	0.706782102585	1.0	0.8	n/a	n/a	238.034347057	238.050055981	239.032819986	n/a	circle.bmp	circle.bmp	oval-vertical.bmp
242.132492065	1.915824891	face	n/a	0.0	0.8	239.12076807	242.048316956	244.048316956	244.065182924	245.047520876	n/a	20M_FE_O.jpg	21M_FE_O.jpg	21M_FE_O.jpg
245.215196848	1.832237004999996	face	1.12456607819	1.0	0.8	n/a	n/a	247.047433853	247.06240797	248.046504974	n/a	07F_AN_O.jpg	07F_AN_O.jpg	01F_AN_O.jpg
248.19432807	1.8496279709999897	face	0.771404981613	1.0	0.8	n/a	n/a	250.043956041	250.063004971	251.045990944	n/a	FFZ_102.jpg	FFZ_102.jpg	FFX_139.jpg
251.213712931	1.832526922	face	0.988922119141	1.0	0.8	n/a	n/a	253.046239853	253.062110901	254.044636965	n/a	22M_AN_O.jpg	23M_AN_O.jpg	23M_AN_O.jpg
254.196903944	1.848412991000004	face	0.637047052383	1.0	0.8	n/a	n/a	256.045316935	256.061540842	257.044375896	n/a	MAX_233.jpg	MAZ_146.jpg	MAZ_146.jpg
257.211382866	1.832798003999983	face	1.0990819931	1.0	0.8	n/a	n/a	259.04418087	259.059751034	260.042568922	n/a	15F_FE_O.jpg	15F_FE_O.jpg	16F_FE_O.jpg
263.092557907	1.9500441550000005	shape	0.72006893158	1.0	0.8	260.132964849	263.042145014	265.042602062	265.058542967	266.041683912	n/a	oval-horizontal.bmp	oval-horizontal.bmp	oval-vertical.bmp
266.168709993	1.8664400580000235	shape	1.52045178413	1.0	0.8	n/a	n/a	268.035150051	268.052670002	269.03548193	n/a	oval-horizontal.bmp	oval-vertical.bmp	oval-vertical.bmp
269.170575857	1.8698871139999933	shape	0.636962175369	1.0	0.8	n/a	n/a	271.040462971	271.056720018	272.039572001	n/a	circle.bmp	circle.bmp	oval-vertical.bmp
272.171611071	1.868186950000052	shape	0.754348993301	1.0	0.8	n/a	n/a	274.039798021	274.05637002	275.039561987	n/a	circle.bmp	oval-vertical.bmp	oval-vertical.bmp
275.173979998	1.8650939460000016	shape	0.785685062408	1.0	0.8	n/a	n/a	277.039073944	277.055794954	278.038367033	n/a	oval-horizontal.bmp	circle.bmp	circle.bmp
278.155693054	1.8821218020000288	shape	0.749160051346	1.0	0.8	n/a	n/a	280.037814856	280.054833889	281.037270069	n/a	oval-horizontal.bmp	oval-horizontal.bmp	circle.bmp
284.104583979	1.9310240739999929	face	0.720136165619	1.0	0.8	281.128079891	284.036252975	286.035608053	286.052556038	287.035248995	n/a	FFZ_18.jpg	FAZ_129.jpg	FAZ_129.jpg
287.204658985	1.830295086000035	face	n/a	0.0	0.8	n/a	n/a	289.034954071	289.051527023	290.046139002	n/a	20M_FE_O.jpg	24M_FE_O.jpg	24M_FE_O.jpg
290.197031975	1.837428092999972	face	0.769476175308	1.0	0.8	n/a	n/a	292.034460068	292.050479889	293.033688068	n/a	FAZ_23.jpg	FAX_25.jpg	FAX_25.jpg
293.216556072	1.8171179299999949	face	0.63876581192	1.0	0.8	n/a	n/a	295.033674002	295.050071001	296.033267975	n/a	33M_FE_O.jpg	33M_FE_O.jpg	35M_FE_O.jpg
296.218263865	1.8154890530000216	face	1.13586497307	1.0	0.8	n/a	n/a	298.033752918	298.049550056	299.048905849	n/a	01F_AN_O.jpg	01F_AN_O.jpg	02F_AN_O.jpg
299.202504873	1.845241069999986	face	0.947481870651	1.0	0.8	n/a	n/a	301.047745943	301.065075874	302.047744989	n/a	MFZ_132.jpg	MFZ_132.jpg	MFZ_120.jpg
305.097622871	1.949180126999977	shape	0.752121925354	1.0	0.8	302.144091845	305.046573877	307.046802998	307.063138008	308.045840025	n/a	oval-horizontal.bmp	oval-vertical.bmp	oval-vertical.bmp
308.174421072	1.871127844	shape	0.776001930237	1.0	0.8	n/a	n/a	310.045548916	310.062056065	311.040870905	n/a	circle.bmp	oval-vertical.bmp	oval-vertical.bmp
311.175514936	1.8691489699999693	shape	1.3074259758	1.0	0.8	n/a	n/a	313.044663906	313.061471939	314.044085026	n/a	oval-horizontal.bmp	oval-horizontal.bmp	oval-vertical.bmp
314.176148891	1.8682451249999872	shape	0.670862913132	1.0	0.8	n/a	n/a	316.044394016	316.061132908	317.043541908	n/a	oval-horizontal.bmp	oval-horizontal.bmp	circle.bmp
317.17790699	1.8655030730000133	shape	0.902586936951	1.0	0.8	n/a	n/a	319.043410063	319.059931993	320.042034864	n/a	circle.bmp	circle.bmp	oval-vertical.bmp
320.176987886	1.865518093999981	shape	0.701450824738	1.0	0.8	n/a	n/a	322.04250598	322.059047937	323.041463852	n/a	oval-horizontal.bmp	circle.bmp	circle.bmp
326.132750988	1.90803289400003	face	1.0114300251	1.0	0.8	323.13891387	326.04034996	328.040783882	328.056598902	329.0397439	n/a	17F_FE_O.jpg	18F_FE_O.jpg	18F_FE_O.jpg
329.206048965	1.8333039290000104	face	0.80966591835	1.0	0.8	n/a	n/a	331.039352894	331.056079865	332.034711838	n/a	42M_AN_O.jpg	43M_AN_O.jpg	43M_AN_O.jpg
332.201850891	1.8368821149999803	face	0.850986003876	1.0	0.8	n/a	n/a	334.038733006	334.055589914	335.038054943	n/a	31M_FE_O.jpg	31M_FE_O.jpg	32M_FE_O.jpg
335.185505867	1.8528621199999973	face	0.58483505249	1.0	0.8	n/a	n/a	337.038367987	337.054518938	338.03785491	n/a	FAZ_212.jpg	FFZ_236.jpg	FFZ_236.jpg
338.2038939	1.833523988999957	face	0.902819871902	1.0	0.8	n/a	n/a	340.037417889	340.05401206	341.036320925	n/a	06F_FE_O.jpg	06F_FE_O.jpg	08F_FE_O.jpg
341.186064005	1.8503210540000048	face	0.884816169739	1.0	0.8	n/a	n/a	343.036385059	343.052706003	344.035167933	n/a	MAZ_128.jpg	MAZ_128.jpg	MAX_39.jpg
347.086195946	1.9485690590000213	shape	0.703518152237	1.0	0.8	344.127938986	347.034569025	349.034765005	349.050749063	350.03342104	n/a	circle.bmp	oval-vertical.bmp	oval-vertical.bmp
350.161030054	1.8723750120000204	shape	0.559865951538	1.0	0.8	n/a	n/a	352.033405066	352.049613953	353.045652866	n/a	oval-horizontal.bmp	oval-horizontal.bmp	circle.bmp
353.178336859	1.8706281180000133	shape	0.638291120529	1.0	0.8	n/a	n/a	355.048964977	355.065073967	356.048452854	n/a	oval-horizontal.bmp	oval-vertical.bmp	oval-vertical.bmp
356.179827929	1.8687329289999752	shape	0.802634000778	1.0	0.8	n/a	n/a	358.048560858	358.065115929	359.048008919	n/a	oval-horizontal.bmp	circle.bmp	circle.bmp
359.18127799	1.8665969379999865	shape	0.818901062012	1.0	0.8	n/a	n/a	361.047874928	361.064209938	362.047386885	n/a	oval-horizontal.bmp	oval-horizontal.bmp	oval-vertical.bmp
362.1807549	1.8661360739999964	shape	0.833708047867	1.0	0.8	n/a	n/a	364.046890974	364.063307047	365.045678854	n/a	circle.bmp	circle.bmp	oval-vertical.bmp
368.103322983	1.9417099949999963	face	0.596329927444	1.0	0.8	365.139554024	368.043854952	370.045032978	370.061310053	371.043442965	n/a	FFZ_18.jpg	FAZ_129.jpg	FAZ_129.jpg
371.222074986	1.816864967000015	face	1.60406184196	1.0	0.8	n/a	n/a	373.038939953	373.055608988	374.042845011	n/a	20M_FE_O.jpg	24M_FE_O.jpg	24M_FE_O.jpg
374.190217972	1.8529069419999475	face	0.723901987076	1.0	0.8	n/a	n/a	376.043124914	376.059728861	377.042373896	n/a	FAZ_23.jpg	FAX_25.jpg	FAX_25.jpg
377.225316048	1.817394017999959	face	1.07140684128	1.0	0.8	n/a	n/a	379.042710066	379.058282852	380.041941881	n/a	33M_FE_O.jpg	33M_FE_O.jpg	35M_FE_O.jpg
380.22665596	1.8155169489999707	face	0.91956114769	1.0	0.8	n/a	n/a	382.042172909	382.058291912	383.041345835	n/a	01F_AN_O.jpg	01F_AN_O.jpg	02F_AN_O.jpg
383.210976839	1.82949709899998	face	1.05272912979	1.0	0.8	n/a	n/a	385.040473938	385.057086945	386.039458036	394.433045864	MFZ_132.jpg	MFZ_132.jpg	MFZ_120.jpg
