onset	duration	trial_type	response_time	accuracy_binarized	tr_seconds	cueStartTime	cueEndTime	trialEndTime	fixStartTime	fixEndTime	runEndTime	stimLeft	stimTop	stimRight
11.0894589424	1.9573690891	shape	n/a	0.0	0.8	8.04133009911	11.0305080414	13.0468280315	13.0630960464	14.0457470417	n/a	oval-horizontal.bmp	oval-horizontal.bmp	oval-vertical.bmp
14.1746280193	1.8714480399999989	shape	1.08981394768	1.0	0.8	n/a	n/a	16.0460760593	16.0617859364	17.0414299965	n/a	oval-horizontal.bmp	oval-vertical.bmp	oval-vertical.bmp
17.1601560116	1.8829860686999995	shape	1.1041579246495	0.0	0.8	n/a	n/a	19.0431420803	19.0588760376	20.0450940132	n/a	circle.bmp	circle.bmp	oval-vertical.bmp
20.1777279377	1.8657860756000024	shape	0.735025882721	1.0	0.8	n/a	n/a	22.0435140133	22.0607469082	23.0440270901	n/a	circle.bmp	oval-vertical.bmp	oval-vertical.bmp
23.1614360809	1.8825600147999992	shape	0.752032995224	1.0	0.8	n/a	n/a	25.0439960957	25.0604710579	26.0424969196	n/a	oval-horizontal.bmp	circle.bmp	circle.bmp
26.1605670452	1.881800890000001	shape	0.550467967987	1.0	0.8	n/a	n/a	28.0423679352	28.0591919422	29.0415010452	n/a	oval-horizontal.bmp	oval-horizontal.bmp	circle.bmp
32.1086521149	1.9323239325999992	face	0.76123213768	1.0	0.8	29.1195058823	32.0407569408	34.0409760475	34.0560688972	35.0393970013	n/a	FAZ_23.jpg	FAZ_23.jpg	FAX_43.jpg
35.1905128956	1.849204063400002	face	0.675629854202	1.0	0.8	n/a	n/a	37.039716959	37.0557589531	38.035161972	n/a	26M_FE_O.jpg	26M_FE_O.jpg	27M_FE_O.BMP
38.1699581146	1.8667438029999983	face	0.703297138214	1.0	0.8	n/a	n/a	40.0367019176	40.0528309345	41.0371479988	n/a	MFX_16.jpg	MFZ_50.jpg	MFZ_50.jpg
41.2046899796	1.8334870338000044	face	0.737228870392	1.0	0.8	n/a	n/a	43.0381770134	43.0541520119	44.0376119614	n/a	09F_AN_O.jpg	09F_AN_O.jpg	10F_AN_O.jpg
44.1885530949	1.8484377861	face	n/a	0.0	0.8	n/a	n/a	46.036990881	46.0530929565	47.0364420414	n/a	38M_AN_O.BMP	39M_AN_O.jpg	39M_AN_O.jpg
47.1695690155	1.8664720057999984	face	0.968998908997	1.0	0.8	n/a	n/a	49.0360410213	49.0516650677	50.05189991	n/a	FFZ_102.jpg	FFX_130.jpg	FFX_130.jpg
53.0939369202	1.9562301635000023	shape	n/a	0.0	0.8	50.1293370724	53.0504150391	55.0501670837	55.0675721169	56.0498108864	n/a	oval-horizontal.bmp	oval-vertical.bmp	oval-vertical.bmp
56.1620280743	1.8876938820000009	shape	n/a	0.0	0.8	n/a	n/a	58.0497219563	58.0659899712	59.0461270809	n/a	circle.bmp	oval-vertical.bmp	oval-vertical.bmp
59.1638329029	1.883219003699999	shape	n/a	0.0	0.8	n/a	n/a	61.0470519066	61.0629780293	62.0484249592	n/a	oval-horizontal.bmp	oval-horizontal.bmp	oval-vertical.bmp
62.1649169922	1.8834240435999945	shape	0.618581056595	1.0	0.8	n/a	n/a	64.0483410358	64.0644059181	65.0468959808	n/a	oval-horizontal.bmp	oval-horizontal.bmp	circle.bmp
65.1659300327	1.881099939400002	shape	0.884536981583	1.0	0.8	n/a	n/a	67.0470299721	67.0636758804	68.0465090275	n/a	circle.bmp	circle.bmp	oval-vertical.bmp
68.1638939381	1.8819379806	shape	0.935990095139	1.0	0.8	n/a	n/a	70.0458319187	70.0622150898	71.0455319881	n/a	oval-horizontal.bmp	circle.bmp	circle.bmp
74.1367731094	1.907364845300009	face	1.42655992508	0.0	0.8	71.1232700348	74.0443789959	76.0441379547	76.0601730347	77.04281497	n/a	03F_FE_O.jpg	05F_FE_O.jpg	05F_FE_O.jpg
77.1774640083	1.865500927	face	0.9743039608	1.0	0.8	n/a	n/a	79.0429649353	79.0596001148	80.0395059586	n/a	FAZ_32.jpg	FAZ_32.jpg	FAX_45.jpg
80.1742808819	1.8682579994000008	face	1.00114107132	1.0	0.8	n/a	n/a	82.0425388813	82.0589940548	83.0419700146	n/a	MAZ_128.jpg	MAZ_101.jpg	MAZ_101.jpg
83.2102029324	1.832122087400009	face	0.987909078598	1.0	0.8	n/a	n/a	85.0423250198	85.0584640503	86.0411379337	n/a	11F_AN_O.jpg	11F_AN_O.jpg	12F_AN_O.jpg
86.1932799816	1.8476989268999944	face	n/a	0.0	0.8	n/a	n/a	88.0409789085	88.0572218895	89.0402719975	n/a	26M_FE_O.jpg	33M_FE_O.jpg	33M_FE_O.jpg
89.1732649803	1.865848064399998	face	0.701948881149	1.0	0.8	n/a	n/a	91.0391130447	91.0560040474	92.0383598804	n/a	MFZ_132.jpg	MFZ_132.jpg	MFZ_120.jpg
95.0895030499	1.9485859870000013	shape	0.793231964111	1.0	0.8	92.1410000324	95.0377280712	97.0380890369	97.0534238815	98.0368111134	n/a	circle.bmp	oval-vertical.bmp	oval-vertical.bmp
98.1498680115	1.8871259685000008	shape	0.524378061295	1.0	0.8	n/a	n/a	100.03699398	100.052957058	101.050163984	n/a	oval-horizontal.bmp	oval-horizontal.bmp	circle.bmp
101.167459011	1.868664979999992	shape	n/a	0.0	0.8	n/a	n/a	103.036123991	103.052535057	104.03541398	n/a	oval-horizontal.bmp	oval-vertical.bmp	oval-vertical.bmp
104.152281046	1.8830120559999983	shape	0.754270792007	1.0	0.8	n/a	n/a	106.035293102	106.051702023	107.034843922	n/a	oval-horizontal.bmp	circle.bmp	circle.bmp
107.151755095	1.8991038789999948	shape	n/a	0.0	0.8	n/a	n/a	109.050858974	109.067538023	110.049974918	n/a	oval-horizontal.bmp	oval-horizontal.bmp	oval-vertical.bmp
110.167534113	1.8816299439999968	shape	0.602474927902	1.0	0.8	n/a	n/a	112.049164057	112.066015005	113.048286915	n/a	circle.bmp	circle.bmp	oval-vertical.bmp
116.108622074	1.939603806000008	face	0.726547002792	1.0	0.8	113.135970116	116.048284054	118.04822588	118.064239025	119.047460079	n/a	FAZ_23.jpg	FAZ_23.jpg	FAX_43.jpg
119.192856073	1.854171038000004	face	0.758147954941	1.0	0.8	n/a	n/a	121.047027111	121.063107014	122.043720007	n/a	26M_FE_O.jpg	26M_FE_O.jpg	27M_FE_O.BMP
122.177786112	1.867966889999991	face	0.885718107224	1.0	0.8	n/a	n/a	124.045753002	124.062473059	125.045553923	n/a	MFZ_50.jpg	MFZ_50.jpg	MFX_16.jpg
125.213288069	1.832602977999997	face	0.869776964188	1.0	0.8	n/a	n/a	127.045891047	127.06162405	128.044898987	n/a	10F_AN_O.jpg	09F_AN_O.jpg	09F_AN_O.jpg
128.195539951	1.8481659889999944	face	0.869859933853	1.0	0.8	n/a	n/a	130.04370594	130.061112881	131.043473005	n/a	38M_AN_O.BMP	39M_AN_O.jpg	39M_AN_O.jpg
131.177354097	1.8657720089999827	face	0.902854919434	1.0	0.8	n/a	n/a	133.043126106	133.0591681	134.042783022	n/a	FFZ_102.jpg	FFX_130.jpg	FFX_130.jpg
137.085290909	1.9563171859999784	shape	0.75972700119	1.0	0.8	134.129496098	137.041306973	139.041608095	139.057730913	140.040834904	n/a	oval-horizontal.bmp	oval-horizontal.bmp	oval-vertical.bmp
140.157706976	1.878822088000021	shape	1.30383491516	1.0	0.8	n/a	n/a	142.036529064	142.054075003	143.037425041	n/a	oval-horizontal.bmp	oval-vertical.bmp	oval-vertical.bmp
143.153640985	1.886385918000002	shape	1.28893303871	1.0	0.8	n/a	n/a	145.040026903	145.055792093	146.039470911	n/a	circle.bmp	circle.bmp	oval-vertical.bmp
146.156770945	1.8823010920000056	shape	0.834444999695	1.0	0.8	n/a	n/a	148.039072037	148.055744886	149.038245916	n/a	circle.bmp	oval-vertical.bmp	oval-vertical.bmp
149.155493975	1.882221936999997	shape	n/a	0.0	0.8	n/a	n/a	151.037715912	151.054246902	152.037338018	n/a	oval-horizontal.bmp	circle.bmp	circle.bmp
152.154109955	1.882745981	shape	0.637069940567	1.0	0.8	n/a	n/a	154.036855936	154.053231001	155.036212921	n/a	oval-horizontal.bmp	oval-horizontal.bmp	circle.bmp
158.129118919	1.9060051440000048	face	n/a	0.0	0.8	155.120384932	158.035175085	160.035124063	160.050981045	161.050882101	n/a	20M_FE_O.jpg	21M_FE_O.jpg	21M_FE_O.jpg
161.215032101	1.8323178290000044	face	0.820133924484	1.0	0.8	n/a	n/a	163.04734993	163.063836098	164.047287941	n/a	01F_AN_O.jpg	07F_AN_O.jpg	07F_AN_O.jpg
164.18560195	1.864171027999987	face	1.10498309135	1.0	0.8	n/a	n/a	166.049772978	166.066802979	167.049427986	n/a	FFX_139.jpg	FFZ_102.jpg	FFZ_102.jpg
167.216862917	1.83152198800002	face	n/a	0.0	0.8	n/a	n/a	169.048384905	169.065963984	170.048163891	n/a	23M_AN_O.jpg	23M_AN_O.jpg	22M_AN_O.jpg
170.183427095	1.8645739559999868	face	n/a	0.0	0.8	n/a	n/a	172.048001051	172.063826084	173.047456026	n/a	MAZ_146.jpg	MAZ_146.jpg	MAX_233.jpg
173.214787006	1.8312408930000004	face	n/a	0.0	0.8	n/a	n/a	175.046027899	175.063241959	176.045638084	n/a	15F_FE_O.jpg	15F_FE_O.jpg	16F_FE_O.jpg
179.096556902	1.9479620459999865	shape	0.643085956573	1.0	0.8	176.138544083	179.045048952	181.044518948	181.061620951	182.044218063	n/a	oval-horizontal.bmp	oval-vertical.bmp	oval-vertical.bmp
182.161679983	1.8796799179999937	shape	1.43782687187	1.0	0.8	n/a	n/a	184.041359901	184.057280064	185.04134202	n/a	circle.bmp	oval-vertical.bmp	oval-vertical.bmp
185.192107916	1.851600170000012	shape	n/a	0.0	0.8	n/a	n/a	187.043708086	187.060585022	188.042449951	n/a	oval-horizontal.bmp	oval-horizontal.bmp	oval-vertical.bmp
188.160798073	1.881733894000007	shape	0.552658557892	1.0	0.8	n/a	n/a	190.042531967	190.058682919	191.042220116	n/a	oval-horizontal.bmp	oval-horizontal.bmp	circle.bmp
191.158579111	1.8834898469999928	shape	0.969310998917	1.0	0.8	n/a	n/a	193.042068958	193.057218075	194.040762901	n/a	circle.bmp	circle.bmp	oval-vertical.bmp
194.158616066	1.8815288539999813	shape	1.31701302528	1.0	0.8	n/a	n/a	196.04014492	196.056207895	197.039746046	n/a	oval-horizontal.bmp	circle.bmp	circle.bmp
200.105942011	1.9325990680000016	face	n/a	0.0	0.8	197.12548399	200.038367033	202.038541079	202.055186033	203.037353039	n/a	FFX_54.jpg	FFX_54.jpg	FAX_51.jpg
203.184252024	1.8674559590000115	face	0.88674902916	1.0	0.8	n/a	n/a	205.051707983	205.067544937	206.03527689	n/a	40M_FE_O.BMP	41M_FE_O.jpg	41M_FE_O.jpg
206.236630917	1.7997500889999856	face	1.18873000145	1.0	0.8	n/a	n/a	208.036381006	208.052783966	209.036672115	n/a	29M_AN_O.jpg	29M_AN_O.jpg	28M_AN_O.jpg
209.187334061	1.8489089009999875	face	1.51735591888	1.0	0.8	n/a	n/a	211.036242962	211.052969933	212.034962893	n/a	FFZ_18.jpg	FFZ_29.jpg	FFZ_29.jpg
212.202656031	1.848397016000007	face	1.30192399025	1.0	0.8	n/a	n/a	214.051053047	214.06784296	215.050311089	n/a	19F_AN_O.jpg	19F_AN_O.jpg	09F_AN_O.jpg
215.185353994	1.865155936000008	face	n/a	0.0	0.8	n/a	n/a	217.05050993	217.067080975	218.049915075	n/a	MFZ_132.jpg	MFZ_7.jpg	MFZ_7.jpg
221.093727112	1.955384969999983	shape	n/a	0.0	0.8	218.13854003	221.049207926	223.049112082	223.065131903	224.04823494	n/a	circle.bmp	oval-vertical.bmp	oval-vertical.bmp
224.178574085	1.866145848999992	shape	0.535848855972	1.0	0.8	n/a	n/a	226.044719934	226.061638117	227.0448699	n/a	oval-horizontal.bmp	oval-horizontal.bmp	circle.bmp
227.165313005	1.881814956999989	shape	n/a	0.0	0.8	n/a	n/a	229.047127962	229.063406944	230.046683073	n/a	oval-horizontal.bmp	oval-vertical.bmp	oval-vertical.bmp
230.18158102	1.8650910859999783	shape	1.35236310959	0.0	0.8	n/a	n/a	232.046672106	232.062768936	233.045600891	n/a	oval-horizontal.bmp	circle.bmp	circle.bmp
233.179203987	1.8656759259999944	shape	0.800123214722	1.0	0.8	n/a	n/a	235.044879913	235.062030077	236.044440031	n/a	oval-horizontal.bmp	oval-horizontal.bmp	oval-vertical.bmp
236.167197943	1.8768780230000173	shape	0.829541921616	1.0	0.8	n/a	n/a	238.044075966	238.059938908	239.042789936	n/a	circle.bmp	circle.bmp	oval-vertical.bmp
242.126274109	1.916381836	face	n/a	0.0	0.8	239.134234905	242.042870998	244.042655945	244.058726072	245.041017056	n/a	20M_FE_O.jpg	21M_FE_O.jpg	21M_FE_O.jpg
245.205142021	1.8345630169999936	face	n/a	0.0	0.8	n/a	n/a	247.039705038	247.056071997	248.040972948	n/a	07F_AN_O.jpg	07F_AN_O.jpg	01F_AN_O.jpg
248.20853591	1.8324270239999976	face	n/a	0.0	0.8	n/a	n/a	250.040962934	250.057286978	251.039530993	n/a	FFZ_102.jpg	FFZ_102.jpg	FFX_139.jpg
251.207760096	1.8318638800000144	face	n/a	0.0	0.8	n/a	n/a	253.039623976	253.056184053	254.039166927	n/a	22M_AN_O.jpg	23M_AN_O.jpg	23M_AN_O.jpg
254.190395117	1.8481068609999909	face	0.769566059113	1.0	0.8	n/a	n/a	256.038501978	256.054935932	257.037951946	n/a	MAX_233.jpg	MAZ_146.jpg	MAZ_146.jpg
257.205020905	1.8319180009999627	face	n/a	0.0	0.8	n/a	n/a	259.036938906	259.053759098	260.036845922	n/a	15F_FE_O.jpg	15F_FE_O.jpg	16F_FE_O.jpg
263.086783886	1.948639154000034	shape	n/a	0.0	0.8	260.126832962	263.035245895	265.03542304	265.051623106	266.035020113	n/a	oval-horizontal.bmp	oval-horizontal.bmp	oval-vertical.bmp
266.165673971	1.8831620220000216	shape	n/a	0.0	0.8	n/a	n/a	268.048835993	268.065604925	269.051168919	n/a	oval-horizontal.bmp	oval-vertical.bmp	oval-vertical.bmp
269.2007339	1.8506641390000027	shape	n/a	0.0	0.8	n/a	n/a	271.051398039	271.067477942	272.049478054	n/a	circle.bmp	circle.bmp	oval-vertical.bmp
272.168467999	1.881829977000052	shape	n/a	0.0	0.8	n/a	n/a	274.050297976	274.066965103	275.049210072	n/a	circle.bmp	oval-vertical.bmp	oval-vertical.bmp
275.170406103	1.878182887999969	shape	n/a	0.0	0.8	n/a	n/a	277.048588991	277.065534115	278.048043013	n/a	oval-horizontal.bmp	circle.bmp	circle.bmp
278.171873093	1.875525950999986	shape	n/a	0.0	0.8	n/a	n/a	280.047399044	280.064694881	281.046864986	n/a	oval-horizontal.bmp	oval-horizontal.bmp	circle.bmp
284.113749027	1.9325439930000243	face	0.941804170609	1.0	0.8	281.136900902	284.046226025	286.04629302	286.062694073	287.045480967	n/a	FFZ_18.jpg	FAZ_129.jpg	FAZ_129.jpg
287.213457108	1.829586982000024	face	n/a	0.0	0.8	n/a	n/a	289.04304409	289.059092045	290.04510498	n/a	20M_FE_O.jpg	24M_FE_O.jpg	24M_FE_O.jpg
290.194570065	1.849337816000002	face	n/a	0.0	0.8	n/a	n/a	292.043907881	292.060192108	293.043936014	n/a	FAZ_23.jpg	FAX_25.jpg	FAX_25.jpg
293.211672068	1.831168890000015	face	n/a	0.0	0.8	n/a	n/a	295.042840958	295.060079098	296.042953014	n/a	33M_FE_O.jpg	33M_FE_O.jpg	35M_FE_O.jpg
296.213835955	1.8286509510000428	face	n/a	0.0	0.8	n/a	n/a	298.042486906	298.058099985	299.041704893	n/a	01F_AN_O.jpg	01F_AN_O.jpg	02F_AN_O.jpg
299.194585085	1.8468139169999631	face	0.769396066666	1.0	0.8	n/a	n/a	301.041399002	301.05804491	302.041071892	n/a	MFZ_132.jpg	MFZ_132.jpg	MFZ_120.jpg
305.084568977	1.954518080000014	shape	n/a	0.0	0.8	302.132236958	305.039912939	307.039087057	307.056135893	308.039167881	n/a	oval-horizontal.bmp	oval-vertical.bmp	oval-vertical.bmp
308.169667959	1.8672130110000469	shape	n/a	0.0	0.8	n/a	n/a	310.03688097	310.05370903	311.038202047	n/a	circle.bmp	oval-vertical.bmp	oval-vertical.bmp
311.171103001	1.8668599129999848	shape	n/a	0.0	0.8	n/a	n/a	313.037962914	313.053877115	314.037770033	n/a	oval-horizontal.bmp	oval-horizontal.bmp	oval-vertical.bmp
314.171129942	1.8652689460000147	shape	n/a	0.0	0.8	n/a	n/a	316.036398888	316.053879023	317.036313057	n/a	oval-horizontal.bmp	oval-horizontal.bmp	circle.bmp
317.170312881	1.865320206000036	shape	n/a	0.0	0.8	n/a	n/a	319.035633087	319.051973104	320.051538944	n/a	circle.bmp	circle.bmp	oval-vertical.bmp
320.208669901	1.82637619999997	shape	n/a	0.0	0.8	n/a	n/a	322.035046101	322.051536083	323.050707102	n/a	oval-horizontal.bmp	circle.bmp	circle.bmp
326.134546995	1.9153590199999824	face	n/a	0.0	0.8	323.143610954	326.049576044	328.049906015	328.066366911	329.045444012	n/a	17F_FE_O.jpg	18F_FE_O.jpg	18F_FE_O.jpg
329.212989092	1.835588932000008	face	n/a	0.0	0.8	n/a	n/a	331.048578024	331.065828085	332.048358917	n/a	42M_AN_O.jpg	43M_AN_O.jpg	43M_AN_O.jpg
332.214546919	1.834109068000032	face	0.952850103378	1.0	0.8	n/a	n/a	334.048655987	334.064479113	335.047703981	n/a	31M_FE_O.jpg	31M_FE_O.jpg	32M_FE_O.jpg
335.200994968	1.8461020000000303	face	n/a	0.0	0.8	n/a	n/a	337.047096968	337.063884974	338.046005011	n/a	FAZ_212.jpg	FFZ_236.jpg	FFZ_236.jpg
338.214261055	1.8313128949999964	face	n/a	0.0	0.8	n/a	n/a	340.04557395	340.062972069	341.045224905	n/a	06F_FE_O.jpg	06F_FE_O.jpg	08F_FE_O.jpg
341.20251894	1.8418631549999984	face	n/a	0.0	0.8	n/a	n/a	343.044382095	343.061263084	344.044433117	n/a	MAZ_128.jpg	MAZ_128.jpg	MAX_39.jpg
347.088753939	1.9548301689999903	shape	n/a	0.0	0.8	344.136260033	347.043802023	349.043584108	349.060086012	350.039237976	n/a	circle.bmp	oval-vertical.bmp	oval-vertical.bmp
350.173930883	1.8682520389999693	shape	n/a	0.0	0.8	n/a	n/a	352.042182922	352.058201075	353.042293072	n/a	oval-horizontal.bmp	oval-horizontal.bmp	circle.bmp
353.1746521	1.8663899889999696	shape	n/a	0.0	0.8	n/a	n/a	355.041042089	355.058471918	356.041136026	n/a	oval-horizontal.bmp	oval-vertical.bmp	oval-vertical.bmp
356.175306082	1.8650410169999527	shape	n/a	0.0	0.8	n/a	n/a	358.040347099	358.056497097	359.039846897	n/a	oval-horizontal.bmp	circle.bmp	circle.bmp
359.162240028	1.877548933000014	shape	n/a	0.0	0.8	n/a	n/a	361.039788961	361.056186914	362.038465023	n/a	oval-horizontal.bmp	oval-horizontal.bmp	oval-vertical.bmp
362.17284894	1.8656849860000195	shape	n/a	0.0	0.8	n/a	n/a	364.038533926	364.055037022	365.037986994	n/a	circle.bmp	circle.bmp	oval-vertical.bmp
368.099684	1.9374539849999903	face	n/a	0.0	0.8	365.13036108	368.036803007	370.037137985	370.052892923	371.050077915	n/a	FFZ_18.jpg	FAZ_129.jpg	FAZ_129.jpg
371.220113039	1.816169023999976	face	n/a	0.0	0.8	n/a	n/a	373.036282063	373.052290916	374.035259008	n/a	20M_FE_O.jpg	24M_FE_O.jpg	24M_FE_O.jpg
374.185514927	1.8496971129999904	face	n/a	0.0	0.8	n/a	n/a	376.03521204	376.052412033	377.034701109	n/a	FAZ_23.jpg	FAX_25.jpg	FAX_25.jpg
377.202179909	1.8485941879999928	face	n/a	0.0	0.8	n/a	n/a	379.050774097	379.068103075	380.050154924	n/a	33M_FE_O.jpg	33M_FE_O.jpg	35M_FE_O.jpg
380.218353987	1.8306479450000093	face	n/a	0.0	0.8	n/a	n/a	382.049001932	382.066313028	383.049410105	n/a	01F_AN_O.jpg	01F_AN_O.jpg	02F_AN_O.jpg
383.232470036	1.816357851000021	face	n/a	0.0	0.8	n/a	n/a	385.048827887	385.065335989	386.048289061	394.445976973	MFZ_132.jpg	MFZ_132.jpg	MFZ_120.jpg
