onset	duration	trial_type	response_time	accuracy_binarized	tr_seconds	cueStartTime	cueEndTime	trialEndTime	fixStartTime	fixEndTime	runEndTime	stimLeft	stimTop	stimRight
11.087900877	1.9557352066	shape	0.742224931717	0.0	0.8	8.03991389275	11.0276670456	13.0436360836	13.0605130196	14.0431039333	n/a	oval-horizontal.bmp	oval-horizontal.bmp	oval-vertical.bmp
14.160738945	1.8827240467	shape	0.441629886627	1.0	0.8	n/a	n/a	16.0434629917	16.0589170456	17.0406188965	n/a	oval-horizontal.bmp	oval-vertical.bmp	oval-vertical.bmp
17.1579771042	1.884691	shape	0.686892032623	1.0	0.8	n/a	n/a	19.0426681042	19.0592670441	20.043241024	n/a	circle.bmp	circle.bmp	oval-vertical.bmp
20.1593298912	1.8832831383000013	shape	0.63924908638	1.0	0.8	n/a	n/a	22.0426130295	22.0589220524	23.0416820049	n/a	circle.bmp	oval-vertical.bmp	oval-vertical.bmp
23.1451499462	1.8961620331000013	shape	0.585374116898	1.0	0.8	n/a	n/a	25.0413119793	25.0578610897	26.0395989418	n/a	oval-horizontal.bmp	circle.bmp	circle.bmp
26.1578650475	1.882012844000002	shape	0.654653072357	1.0	0.8	n/a	n/a	28.0398778915	28.0563640594	29.0381510258	n/a	oval-horizontal.bmp	oval-horizontal.bmp	circle.bmp
32.1053218842	1.9329550265999984	face	0.696189165115	1.0	0.8	29.111344099	32.0380730629	34.0382769108	34.0543599129	35.0366110802	n/a	FAZ_23.jpg	FAZ_23.jpg	FAX_43.jpg
35.1835339069	1.8507211208999976	face	0.753494977951	1.0	0.8	n/a	n/a	37.0342550278	37.0507740974	38.0346009731	n/a	26M_FE_O.jpg	26M_FE_O.jpg	27M_FE_O.BMP
38.1686708927	1.867910146699998	face	0.621319055557	1.0	0.8	n/a	n/a	40.0365810394	40.0534369946	41.036221981	n/a	MFX_16.jpg	MFZ_50.jpg	MFZ_50.jpg
41.2039530277	1.832684993800001	face	0.784201145172	1.0	0.8	n/a	n/a	43.0366380215	43.0528869629	44.0348958969	n/a	09F_AN_O.jpg	09F_AN_O.jpg	10F_AN_O.jpg
44.1863479614	1.849481105799996	face	0.701678991318	1.0	0.8	n/a	n/a	46.0358290672	46.0515880585	47.0341360569	n/a	38M_AN_O.BMP	39M_AN_O.jpg	39M_AN_O.jpg
47.1689369678	1.8648281098000008	face	0.837924957275	1.0	0.8	n/a	n/a	49.0337650776	49.0503690243	50.03312397	n/a	FFZ_102.jpg	FFX_130.jpg	FFX_130.jpg
53.0751519203	1.957340002099997	shape	0.642333030701	1.0	0.8	50.1068570614	53.0322780609	55.0324919224	55.0482690334	56.0479819775	n/a	oval-horizontal.bmp	oval-vertical.bmp	oval-vertical.bmp
56.1620519161	1.883249044400003	shape	0.469630002975	1.0	0.8	n/a	n/a	58.0453009605	58.0618400574	59.0453579426	n/a	circle.bmp	oval-vertical.bmp	oval-vertical.bmp
59.1627249718	1.885050058299996	shape	0.555109977722	0.0	0.8	n/a	n/a	61.0477750301	61.0639269352	62.0473818779	n/a	oval-horizontal.bmp	oval-horizontal.bmp	oval-vertical.bmp
62.1650350094	1.8825409412000056	shape	0.753521203995	1.0	0.8	n/a	n/a	64.0475759506	64.0637950897	65.0467200279	n/a	oval-horizontal.bmp	oval-horizontal.bmp	circle.bmp
65.1643009186	1.881756067299989	shape	0.738781929016	1.0	0.8	n/a	n/a	67.0460569859	67.0622498989	68.0447781086	n/a	circle.bmp	circle.bmp	oval-vertical.bmp
68.1515159607	1.892967939400009	shape	0.547106027603	1.0	0.8	n/a	n/a	70.0444839001	70.061191082	71.0442750454	n/a	oval-horizontal.bmp	circle.bmp	circle.bmp
74.1374120712	1.9057879447999968	face	0.742593050003	1.0	0.8	71.1207280159	74.0429530144	76.043200016	76.0593299866	77.0423390865	n/a	03F_FE_O.jpg	05F_FE_O.jpg	05F_FE_O.jpg
77.1727540493	1.866647005100006	face	0.686951875687	1.0	0.8	n/a	n/a	79.0394010544	79.0557029247	80.0415608883	n/a	FAZ_32.jpg	FAZ_32.jpg	FAX_45.jpg
80.1745998859	1.8668930531	face	0.839004993439	1.0	0.8	n/a	n/a	82.041492939	82.0583848953	83.04164505	n/a	MAZ_128.jpg	MAZ_101.jpg	MAZ_101.jpg
83.1914260387	1.8499388694999936	face	1.00401616096	1.0	0.8	n/a	n/a	85.0413649082	85.0582449436	86.0403161049	n/a	11F_AN_O.jpg	11F_AN_O.jpg	12F_AN_O.jpg
86.1921670437	1.847816944100004	face	0.767045021057	1.0	0.8	n/a	n/a	88.0399839878	88.0568740368	89.0389480591	n/a	26M_FE_O.jpg	33M_FE_O.jpg	33M_FE_O.jpg
89.1748230457	1.863822937000009	face	1.02140307426	1.0	0.8	n/a	n/a	91.0386459827	91.0553359985	92.0372579098	n/a	MFZ_132.jpg	MFZ_132.jpg	MFZ_120.jpg
95.0877890587	1.949476957300007	shape	0.525525093079	1.0	0.8	92.1156311035	95.0369329453	97.037266016	97.0528469086	98.0357630253	n/a	circle.bmp	oval-vertical.bmp	oval-vertical.bmp
98.1500649452	1.8840060237999976	shape	0.61884188652	1.0	0.8	n/a	n/a	100.034070969	100.050985098	101.035348892	n/a	oval-horizontal.bmp	oval-horizontal.bmp	circle.bmp
101.151796103	1.8841829300000088	shape	0.604896068573	1.0	0.8	n/a	n/a	103.035979033	103.05241704	104.035840034	n/a	oval-horizontal.bmp	oval-vertical.bmp	oval-vertical.bmp
104.153079033	1.8824620250000093	shape	0.753487825394	1.0	0.8	n/a	n/a	106.035541058	106.052082062	107.034739971	n/a	oval-horizontal.bmp	circle.bmp	circle.bmp
107.153634071	1.880867957999996	shape	0.687602043152	0.0	0.8	n/a	n/a	109.034502029	109.050476074	110.033104897	n/a	oval-horizontal.bmp	oval-horizontal.bmp	oval-vertical.bmp
110.150569916	1.882335186000006	shape	0.670382022858	1.0	0.8	n/a	n/a	112.032905102	112.049822092	113.031888962	n/a	circle.bmp	circle.bmp	oval-vertical.bmp
116.109636068	1.9379038809999969	face	0.542057991028	1.0	0.8	113.111990929	116.047480106	118.047539949	118.063817024	119.047012091	n/a	FAZ_23.jpg	FAZ_23.jpg	FAX_43.jpg
119.194732904	1.85052800199999	face	0.670899152756	1.0	0.8	n/a	n/a	121.045260906	121.061601877	122.046186924	n/a	26M_FE_O.jpg	26M_FE_O.jpg	27M_FE_O.BMP
122.17897296	1.8677620880000063	face	0.571540117264	1.0	0.8	n/a	n/a	124.046735048	124.062572002	125.046911955	n/a	MFZ_50.jpg	MFZ_50.jpg	MFX_16.jpg
125.214588881	1.8315072059999973	face	0.935802936554	1.0	0.8	n/a	n/a	127.046096087	127.061695099	128.045027018	n/a	10F_AN_O.jpg	09F_AN_O.jpg	09F_AN_O.jpg
128.19677496	1.847846984	face	0.653521776199	1.0	0.8	n/a	n/a	130.044621944	130.061342955	131.043709993	n/a	38M_AN_O.BMP	39M_AN_O.jpg	39M_AN_O.jpg
131.17802	1.865561009000004	face	0.637275934219	1.0	0.8	n/a	n/a	133.043581009	133.060087919	134.042967081	n/a	FFZ_102.jpg	FFX_130.jpg	FFX_130.jpg
137.093435049	1.9480218890000167	shape	0.542711019516	1.0	0.8	134.125310898	137.041496038	139.041456938	139.058202028	140.037568092	n/a	oval-horizontal.bmp	oval-horizontal.bmp	oval-vertical.bmp
140.172420979	1.8685729499999864	shape	0.604463100433	1.0	0.8	n/a	n/a	142.040993929	142.057445049	143.040489912	n/a	oval-horizontal.bmp	oval-vertical.bmp	oval-vertical.bmp
143.157181978	1.883273124999988	shape	0.671329975128	1.0	0.8	n/a	n/a	145.040455103	145.057286024	146.041013002	n/a	circle.bmp	circle.bmp	oval-vertical.bmp
146.158498049	1.882011890000001	shape	0.552609920502	1.0	0.8	n/a	n/a	148.040509939	148.057116032	149.038861036	n/a	circle.bmp	oval-vertical.bmp	oval-vertical.bmp
149.157341003	1.8815429210000048	shape	0.622262954712	1.0	0.8	n/a	n/a	151.038883924	151.055085897	152.0381639	n/a	oval-horizontal.bmp	circle.bmp	circle.bmp
152.1552279	1.882580995000012	shape	0.688495159149	1.0	0.8	n/a	n/a	154.037808895	154.054133892	155.037324905	n/a	oval-horizontal.bmp	oval-horizontal.bmp	circle.bmp
158.131177902	1.9174141889999987	face	0.875146150589	1.0	0.8	155.120553017	158.036196947	160.048592091	160.064572096	161.035094976	n/a	20M_FE_O.jpg	21M_FE_O.jpg	21M_FE_O.jpg
161.19928503	1.8340229990000123	face	0.619193077087	1.0	0.8	n/a	n/a	163.033308029	163.050133944	164.034733057	n/a	01F_AN_O.jpg	07F_AN_O.jpg	07F_AN_O.jpg
164.169344902	1.865800141999984	face	0.687570095062	1.0	0.8	n/a	n/a	166.035145044	166.052184105	167.033966064	n/a	FFX_139.jpg	FFZ_102.jpg	FFZ_102.jpg
167.204461098	1.8302710050000144	face	0.899888038635	1.0	0.8	n/a	n/a	169.034732103	169.05082798	170.03354311	n/a	23M_AN_O.jpg	23M_AN_O.jpg	22M_AN_O.jpg
170.170583963	1.8621580599999843	face	0.713617086411	1.0	0.8	n/a	n/a	172.032742023	172.0492661	173.03200388	n/a	MAZ_146.jpg	MAZ_146.jpg	MAX_233.jpg
173.199976921	1.8484101299999909	face	n/a	0.0	0.8	n/a	n/a	175.048387051	175.065237999	176.047868967	n/a	15F_FE_O.jpg	15F_FE_O.jpg	16F_FE_O.jpg
179.091145992	1.955209970999988	shape	0.608597040176	1.0	0.8	176.132816076	179.04680109	181.046355963	181.062609911	182.04270196	n/a	oval-horizontal.bmp	oval-vertical.bmp	oval-vertical.bmp
182.163024902	1.882806063000004	shape	0.52015209198	1.0	0.8	n/a	n/a	184.045830965	184.062453985	185.045578003	n/a	circle.bmp	oval-vertical.bmp	oval-vertical.bmp
185.162136078	1.883991003000005	shape	0.804308891296	1.0	0.8	n/a	n/a	187.046127081	187.062448978	188.045759916	n/a	oval-horizontal.bmp	oval-horizontal.bmp	oval-vertical.bmp
188.162842035	1.8828289509999927	shape	0.638226032257	1.0	0.8	n/a	n/a	190.045670986	190.061978102	191.043950081	n/a	oval-horizontal.bmp	oval-horizontal.bmp	circle.bmp
191.161546946	1.8820641040000223	shape	0.75439786911	1.0	0.8	n/a	n/a	193.04361105	193.060306072	194.042654037	n/a	circle.bmp	circle.bmp	oval-vertical.bmp
194.160063028	1.882700919999991	shape	0.569396972656	1.0	0.8	n/a	n/a	196.042763948	196.059150934	197.042073965	n/a	oval-horizontal.bmp	circle.bmp	circle.bmp
200.107480049	1.9328439239999968	face	0.625237941742	1.0	0.8	197.126621008	200.040997028	202.040323973	202.057339907	203.039391994	n/a	FFX_54.jpg	FFX_54.jpg	FAX_51.jpg
203.190414906	1.8500721450000128	face	0.669868946075	1.0	0.8	n/a	n/a	205.040487051	205.057189941	206.039676905	n/a	40M_FE_O.BMP	41M_FE_O.jpg	41M_FE_O.jpg
206.206990004	1.833461999000008	face	0.570324897766	1.0	0.8	n/a	n/a	208.040452003	208.057327986	209.039469004	n/a	29M_AN_O.jpg	29M_AN_O.jpg	28M_AN_O.jpg
209.190578938	1.848304033000005	face	0.548965930939	1.0	0.8	n/a	n/a	211.038882971	211.056370974	212.037950993	n/a	FFZ_18.jpg	FFZ_29.jpg	FFZ_29.jpg
212.205461979	1.8323249819999887	face	0.935803174973	1.0	0.8	n/a	n/a	214.037786961	214.054532051	215.037146091	n/a	19F_AN_O.jpg	19F_AN_O.jpg	09F_AN_O.jpg
215.177870035	1.858659982999996	face	0.681375980377	1.0	0.8	n/a	n/a	217.036530018	217.05329895	218.036006927	n/a	MFZ_132.jpg	MFZ_7.jpg	MFZ_7.jpg
221.080071926	1.954713106000014	shape	0.72346496582	1.0	0.8	218.123759031	221.035105944	223.034785032	223.051647902	224.048563004	n/a	circle.bmp	oval-vertical.bmp	oval-vertical.bmp
224.168282986	1.866277932999992	shape	0.603791952133	1.0	0.8	n/a	n/a	226.034560919	226.051198959	227.034318924	n/a	oval-horizontal.bmp	oval-horizontal.bmp	circle.bmp
227.150161028	1.8843739029999824	shape	0.520714044571	1.0	0.8	n/a	n/a	229.034534931	229.050770044	230.033668995	n/a	oval-horizontal.bmp	oval-vertical.bmp	oval-vertical.bmp
230.151108027	1.882686852999996	shape	0.7354991436	1.0	0.8	n/a	n/a	232.03379488	232.04896903	233.03213501	n/a	oval-horizontal.bmp	circle.bmp	circle.bmp
233.153166056	1.8951928609999984	shape	0.979580879211	1.0	0.8	n/a	n/a	235.048358917	235.065085888	236.046812057	n/a	oval-horizontal.bmp	oval-horizontal.bmp	oval-vertical.bmp
236.165306091	1.882061004999997	shape	0.622756958008	1.0	0.8	n/a	n/a	238.047367096	238.064189911	239.046439886	n/a	circle.bmp	circle.bmp	oval-vertical.bmp
242.129816055	1.9162600040000088	face	0.758181095123	1.0	0.8	239.132699966	242.045929909	244.046076059	244.062347889	245.043009043	n/a	20M_FE_O.jpg	21M_FE_O.jpg	21M_FE_O.jpg
245.2094419	1.83603119899999	face	0.635723114014	1.0	0.8	n/a	n/a	247.045473099	247.061652899	248.044779062	n/a	07F_AN_O.jpg	07F_AN_O.jpg	01F_AN_O.jpg
248.194276094	1.8511648180000009	face	0.786947965622	1.0	0.8	n/a	n/a	250.045440912	250.061556101	251.044548988	n/a	FFZ_102.jpg	FFZ_102.jpg	FFX_139.jpg
251.211724997	1.832350015000003	face	0.932291984558	1.0	0.8	n/a	n/a	253.044075012	253.060679913	254.042747974	n/a	22M_AN_O.jpg	23M_AN_O.jpg	23M_AN_O.jpg
254.180610895	1.8618841170000169	face	0.628720998764	1.0	0.8	n/a	n/a	256.042495012	256.059284925	257.041718006	n/a	MAX_233.jpg	MAZ_146.jpg	MAZ_146.jpg
257.20945096	1.8323769569999515	face	0.800575017929	1.0	0.8	n/a	n/a	259.041827917	259.058095932	260.040733099	n/a	15F_FE_O.jpg	15F_FE_O.jpg	16F_FE_O.jpg
263.085974932	1.951097964999974	shape	0.58632683754	1.0	0.8	260.134171963	263.039766073	265.037072897	265.053442001	266.036974907	n/a	oval-horizontal.bmp	oval-horizontal.bmp	oval-vertical.bmp
266.17098093	1.8681261540000376	shape	0.522595882416	1.0	0.8	n/a	n/a	268.039107084	268.056036949	269.038847923	n/a	oval-horizontal.bmp	oval-vertical.bmp	oval-vertical.bmp
269.172703028	1.866119861000016	shape	0.485754966736	1.0	0.8	n/a	n/a	271.038822889	271.056210995	272.03869009	n/a	circle.bmp	circle.bmp	oval-vertical.bmp
272.172903061	1.864935875000015	shape	0.585247039795	1.0	0.8	n/a	n/a	274.037838936	274.054527044	275.037275076	n/a	circle.bmp	oval-vertical.bmp	oval-vertical.bmp
275.158833981	1.8782539360000208	shape	0.549997806549	1.0	0.8	n/a	n/a	277.037087917	277.053190947	278.036066055	n/a	oval-horizontal.bmp	circle.bmp	circle.bmp
278.17050004	1.8647239210000064	shape	0.555132865906	1.0	0.8	n/a	n/a	280.035223961	280.052275896	281.034528017	n/a	oval-horizontal.bmp	oval-horizontal.bmp	circle.bmp
284.096565008	1.9502649309999924	face	0.524382829666	1.0	0.8	281.12749505	284.033839941	286.046829939	286.065442085	287.047610998	n/a	FFZ_18.jpg	FAZ_129.jpg	FAZ_129.jpg
287.215163946	1.8184180259999607	face	0.854809045792	1.0	0.8	n/a	n/a	289.033581972	289.049798965	290.032612085	n/a	20M_FE_O.jpg	24M_FE_O.jpg	24M_FE_O.jpg
290.183657885	1.849963188000004	face	0.652674913406	1.0	0.8	n/a	n/a	292.033621073	292.05022788	293.032372952	n/a	FAZ_23.jpg	FAX_25.jpg	FAX_25.jpg
293.199651957	1.832847117999961	face	0.784540891647	1.0	0.8	n/a	n/a	295.032499075	295.047960997	296.047650099	n/a	33M_FE_O.jpg	33M_FE_O.jpg	35M_FE_O.jpg
296.233165979	1.8142430790000503	face	0.671523094177	1.0	0.8	n/a	n/a	298.047409058	298.064178944	299.046545029	n/a	01F_AN_O.jpg	01F_AN_O.jpg	02F_AN_O.jpg
299.20064497	1.8462800980000225	face	0.619415998459	1.0	0.8	n/a	n/a	301.046925068	301.062572002	302.045563936	n/a	MFZ_132.jpg	MFZ_132.jpg	MFZ_120.jpg
305.091065884	1.9509701730000304	shape	0.686376094818	1.0	0.8	302.139219999	305.044960976	307.042036057	307.057466984	308.041578054	n/a	oval-horizontal.bmp	oval-vertical.bmp	oval-vertical.bmp
308.175710917	1.868054151000024	shape	0.487613916397	1.0	0.8	n/a	n/a	310.043765068	310.060487986	311.044500113	n/a	circle.bmp	oval-vertical.bmp	oval-vertical.bmp
311.178044081	1.8662159440000323	shape	0.770342111588	1.0	0.8	n/a	n/a	313.044260025	313.060065985	314.043390036	n/a	oval-horizontal.bmp	oval-horizontal.bmp	oval-vertical.bmp
314.178073883	1.8648240569999643	shape	0.618505001068	1.0	0.8	n/a	n/a	316.04289794	316.059185982	317.041903019	n/a	oval-horizontal.bmp	oval-horizontal.bmp	circle.bmp
317.177011013	1.864577054999984	shape	0.766119003296	1.0	0.8	n/a	n/a	319.041588068	319.05806303	320.040978909	n/a	circle.bmp	circle.bmp	oval-vertical.bmp
320.174305916	1.8670241830000125	shape	0.595072984695	1.0	0.8	n/a	n/a	322.041330099	322.057141066	323.039517879	n/a	oval-horizontal.bmp	circle.bmp	circle.bmp
326.135175943	1.9013271340000413	face	1.26735186577	1.0	0.8	323.135587931	326.039092064	328.036503077	328.05260396	329.036591053	n/a	17F_FE_O.jpg	18F_FE_O.jpg	18F_FE_O.jpg
329.203424931	1.834798097000032	face	0.722255945206	1.0	0.8	n/a	n/a	331.038223028	331.054891109	332.037894964	n/a	42M_AN_O.jpg	43M_AN_O.jpg	43M_AN_O.jpg
332.206269979	1.8323869710000047	face	0.570138931274	1.0	0.8	n/a	n/a	334.03865695	334.055142879	335.037760019	n/a	31M_FE_O.jpg	31M_FE_O.jpg	32M_FE_O.jpg
335.189923048	1.8476710319999936	face	0.717809915543	1.0	0.8	n/a	n/a	337.03759408	337.053428888	338.035796881	n/a	FAZ_212.jpg	FFZ_236.jpg	FFZ_236.jpg
338.207736015	1.828042030999996	face	0.615467071533	1.0	0.8	n/a	n/a	340.035778046	340.052084923	341.035000086	n/a	06F_FE_O.jpg	06F_FE_O.jpg	08F_FE_O.jpg
341.193538904	1.8408050540000431	face	0.625068902969	1.0	0.8	n/a	n/a	343.034343958	343.051454067	344.034120083	n/a	MAZ_128.jpg	MAZ_128.jpg	MAX_39.jpg
347.079871893	1.951125144999992	shape	0.620354175568	1.0	0.8	344.134963036	347.032212019	349.030997038	349.047019958	350.032591105	n/a	circle.bmp	oval-vertical.bmp	oval-vertical.bmp
350.165271044	1.8671698569999648	shape	0.787958860397	1.0	0.8	n/a	n/a	352.032440901	352.049315929	353.03260088	n/a	oval-horizontal.bmp	oval-horizontal.bmp	circle.bmp
353.167356014	1.8650720119999848	shape	0.470274925232	0.0	0.8	n/a	n/a	355.032428026	355.049161911	356.0486269	n/a	oval-horizontal.bmp	oval-vertical.bmp	oval-vertical.bmp
356.182348967	1.8655419350000104	shape	0.620142936707	1.0	0.8	n/a	n/a	358.047890902	358.064069033	359.046631098	n/a	oval-horizontal.bmp	circle.bmp	circle.bmp
359.181348085	1.8651888369999483	shape	0.838089227676	1.0	0.8	n/a	n/a	361.046536922	361.063046932	362.045837879	n/a	oval-horizontal.bmp	oval-horizontal.bmp	oval-vertical.bmp
362.180238008	1.865508079999984	shape	0.970154047012	1.0	0.8	n/a	n/a	364.045746088	364.06223011	365.044476986	n/a	circle.bmp	circle.bmp	oval-vertical.bmp
368.10709095	1.934283972000003	face	0.620020151138	1.0	0.8	365.142612934	368.043689966	370.041374922	370.058362007	371.043610096	n/a	FFZ_18.jpg	FAZ_129.jpg	FAZ_129.jpg
371.227092981	1.8167679310000155	face	0.736926794052	1.0	0.8	n/a	n/a	373.043860912	373.060538054	374.042622089	n/a	20M_FE_O.jpg	24M_FE_O.jpg	24M_FE_O.jpg
374.192877054	1.850941896999984	face	0.736901044846	1.0	0.8	n/a	n/a	376.043818951	376.059943914	377.042953968	n/a	FAZ_23.jpg	FAX_25.jpg	FAX_25.jpg
377.210659981	1.831295012999988	face	1.08356285095	1.0	0.8	n/a	n/a	379.041954994	379.058213949	380.040735006	n/a	33M_FE_O.jpg	33M_FE_O.jpg	35M_FE_O.jpg
380.225867987	1.8148100369999725	face	0.637554883957	1.0	0.8	n/a	n/a	382.040678024	382.056986094	383.03947711	n/a	01F_AN_O.jpg	01F_AN_O.jpg	02F_AN_O.jpg
383.191226959	1.848304034000023	face	0.709605932236	1.0	0.8	n/a	n/a	385.039530993	385.056232929	386.038311005	394.437441111	MFZ_132.jpg	MFZ_132.jpg	MFZ_120.jpg
