onset	duration	trial_type	response_time	accuracy_binarized	tr_seconds	cueStartTime	cueEndTime	trialEndTime	fixStartTime	fixEndTime	runEndTime	stimLeft	stimTop	stimRight
11.0630018711	1.9684059619999985	shape	0.970659017563	1.0	0.8	8.02460098267	11.0145359039	13.0314078331	13.0360610485	14.0309638977	n/a	oval-horizontal.bmp	oval-horizontal.bmp	oval-vertical.bmp
14.1512219906	1.8790829182000013	shape	1.42029213905	1.0	0.8	n/a	n/a	16.0303049088	16.0346009731	17.0297808647	n/a	oval-horizontal.bmp	oval-vertical.bmp	oval-vertical.bmp
17.1269688606	1.9032001496	shape	0.971134185791	1.0	0.8	n/a	n/a	19.0301690102	19.0337460041	20.0299339294	n/a	circle.bmp	circle.bmp	oval-vertical.bmp
20.12586689	1.9046649931999973	shape	0.770328044891	1.0	0.8	n/a	n/a	22.0305318832	22.0337469578	23.0291130543	n/a	circle.bmp	oval-vertical.bmp	oval-vertical.bmp
23.1260018349	1.902932167000003	shape	0.820165872574	1.0	0.8	n/a	n/a	25.0289340019	25.0324950218	26.0285859108	n/a	oval-horizontal.bmp	circle.bmp	circle.bmp
26.1261868477	1.9023871421999985	shape	0.886766910553	1.0	0.8	n/a	n/a	28.0285739899	28.032227993	29.0284259319	n/a	oval-horizontal.bmp	oval-horizontal.bmp	circle.bmp
32.0928509235	1.936542034199995	face	0.853355169296	1.0	0.8	29.1022539139	32.0273940563	34.0293929577	34.0338690281	35.0279769897	n/a	FAZ_23.jpg	FAZ_23.jpg	FAX_43.jpg
35.1705589294	1.8581559657999944	face	1.43560004234	1.0	0.8	n/a	n/a	37.0287148952	37.0323479176	38.0277400017	n/a	26M_FE_O.jpg	26M_FE_O.jpg	27M_FE_O.BMP
38.1547999382	1.873618125900002	face	1.01829314232	1.0	0.8	n/a	n/a	40.0284180641	40.0325729847	41.0274858475	n/a	MFX_16.jpg	MFZ_50.jpg	MFZ_50.jpg
41.1756429672	1.852194070800003	face	1.28734993935	1.0	0.8	n/a	n/a	43.027837038	43.0316898823	44.0265989304	n/a	09F_AN_O.jpg	09F_AN_O.jpg	10F_AN_O.jpg
44.1634039879	1.8638639450000056	face	0.868712902069	1.0	0.8	n/a	n/a	46.0272679329	46.0307810307	47.0267879963	n/a	38M_AN_O.BMP	39M_AN_O.jpg	39M_AN_O.jpg
47.1480128765	1.8790960312	face	1.21966791153	1.0	0.8	n/a	n/a	49.0271089077	49.0306808949	50.0260300636	n/a	FFZ_102.jpg	FFX_130.jpg	FFX_130.jpg
53.0656919479	1.9606740474999995	shape	0.820513010025	1.0	0.8	50.1009860039	53.0265090466	55.0263659954	55.0311210155	56.0256838799	n/a	oval-horizontal.bmp	oval-vertical.bmp	oval-vertical.bmp
56.1275529861	1.8980839253	shape	0.67143702507	1.0	0.8	n/a	n/a	58.0256369114	58.0295610428	59.0252490044	n/a	circle.bmp	oval-vertical.bmp	oval-vertical.bmp
59.125346899	1.9003441333999973	shape	0.785718202591	0.0	0.8	n/a	n/a	61.0256910324	61.0293860435	62.0246119499	n/a	oval-horizontal.bmp	oval-horizontal.bmp	oval-vertical.bmp
62.1233530045	1.9011428356000053	shape	0.937685012817	1.0	0.8	n/a	n/a	64.0244958401	64.0281569958	65.0245950222	n/a	oval-horizontal.bmp	oval-horizontal.bmp	circle.bmp
65.1277298927	1.8973820209999983	shape	0.937448978424	1.0	0.8	n/a	n/a	67.0251119137	67.0287649632	68.0240249634	n/a	circle.bmp	circle.bmp	oval-vertical.bmp
68.1285190582	1.8956589698999973	shape	0.686514854431	1.0	0.8	n/a	n/a	70.0241780281	70.0278120041	71.023154974	n/a	oval-horizontal.bmp	circle.bmp	circle.bmp
74.1128778458	1.9116220474000016	face	1.6495821476	1.0	0.8	71.099668026	74.0240900517	76.0244998932	76.0294020176	77.0231850147	n/a	03F_FE_O.jpg	05F_FE_O.jpg	05F_FE_O.jpg
77.1498808861	1.873680114700008	face	0.914433002472	1.0	0.8	n/a	n/a	79.0235610008	79.0272500515	80.0218939781	n/a	FAZ_32.jpg	FAZ_32.jpg	FAX_45.jpg
80.1493659019	1.874072074899999	face	1.28037714958	1.0	0.8	n/a	n/a	82.0234379768	82.0270228386	83.0226769447	n/a	MAZ_128.jpg	MAZ_101.jpg	MAZ_101.jpg
83.1726329327	1.8502440452	face	0.953148126602	1.0	0.8	n/a	n/a	85.0228769779	85.0267238617	86.0218820572	n/a	11F_AN_O.jpg	11F_AN_O.jpg	12F_AN_O.jpg
86.1703598499	1.8522500992000064	face	1.14619684219	1.0	0.8	n/a	n/a	88.0226099491	88.0269069672	89.0219409466	n/a	26M_FE_O.jpg	33M_FE_O.jpg	33M_FE_O.jpg
89.1499040127	1.8725109099999884	face	1.36412000656	1.0	0.8	n/a	n/a	91.0224149227	91.0258939266	92.0212779045	n/a	MFZ_132.jpg	MFZ_132.jpg	MFZ_120.jpg
95.0582230091	1.963325977300002	shape	0.720468044281	1.0	0.8	92.1036939621	95.0215320587	97.0215489864	97.0261249542	98.0204319954	n/a	circle.bmp	oval-vertical.bmp	oval-vertical.bmp
98.122328043	1.8985099790000104	shape	0.937022209167	1.0	0.8	n/a	n/a	100.020838022	100.024646997	101.020340919	n/a	oval-horizontal.bmp	oval-horizontal.bmp	circle.bmp
101.122644901	1.8983440399999976	shape	0.703767061234	1.0	0.8	n/a	n/a	103.020988941	103.024584055	104.020134926	n/a	oval-horizontal.bmp	oval-vertical.bmp	oval-vertical.bmp
104.125424862	1.8949201109999905	shape	0.72060084343	1.0	0.8	n/a	n/a	106.020344973	106.023836851	107.019680023	n/a	oval-horizontal.bmp	circle.bmp	circle.bmp
107.124089003	1.89645195	shape	1.50349378586	1.0	0.8	n/a	n/a	109.020540953	109.024123907	110.019536018	n/a	oval-horizontal.bmp	oval-horizontal.bmp	oval-vertical.bmp
110.125582933	1.8944261079999904	shape	0.653492927551	1.0	0.8	n/a	n/a	112.020009041	112.024086952	113.019062996	n/a	circle.bmp	circle.bmp	oval-vertical.bmp
116.075770855	1.9441549780000005	face	1.40357995033	1.0	0.8	113.100184917	116.018803835	118.019925833	118.024549007	119.019110918	n/a	FAZ_23.jpg	FAZ_23.jpg	FAX_43.jpg
119.151744843	1.866761206999996	face	0.926298856735	1.0	0.8	n/a	n/a	121.01850605	121.022199869	122.018210888	n/a	26M_FE_O.jpg	26M_FE_O.jpg	27M_FE_O.BMP
122.142539978	1.875351905999992	face	0.886302947998	1.0	0.8	n/a	n/a	124.017891884	124.021965981	125.017529964	n/a	MFZ_50.jpg	MFZ_50.jpg	MFX_16.jpg
125.168910027	1.8492980000000043	face	1.15937209129	1.0	0.8	n/a	n/a	127.018208027	127.021998882	128.017497063	n/a	10F_AN_O.jpg	09F_AN_O.jpg	09F_AN_O.jpg
128.155031919	1.86277103499998	face	0.887111902237	1.0	0.8	n/a	n/a	130.017802954	130.021394968	131.016942978	n/a	38M_AN_O.BMP	39M_AN_O.jpg	39M_AN_O.jpg
131.140980959	1.8765530590000024	face	0.986462116241	1.0	0.8	n/a	n/a	133.017534018	133.021097898	134.016765833	n/a	FFZ_102.jpg	FFX_130.jpg	FFX_130.jpg
137.055680037	1.9611189359999912	shape	0.703768014908	1.0	0.8	134.098244905	137.017003059	139.016798973	139.021456957	140.01631093	n/a	oval-horizontal.bmp	oval-horizontal.bmp	oval-vertical.bmp
140.120177984	1.8964848519999864	shape	1.45600986481	1.0	0.8	n/a	n/a	142.016662836	142.020220995	143.016098022	n/a	oval-horizontal.bmp	oval-vertical.bmp	oval-vertical.bmp
143.122971058	1.893327951000004	shape	0.77149605751	1.0	0.8	n/a	n/a	145.016299009	145.019863844	146.015503883	n/a	circle.bmp	circle.bmp	oval-vertical.bmp
146.126688004	1.9056019780000213	shape	1.42470693588	1.0	0.8	n/a	n/a	148.032289982	148.035871029	149.031802893	n/a	circle.bmp	oval-vertical.bmp	oval-vertical.bmp
149.140284061	1.8916759500000069	shape	0.63684797287	1.0	0.8	n/a	n/a	151.031960011	151.035518885	152.031327009	n/a	oval-horizontal.bmp	circle.bmp	circle.bmp
152.138062954	1.8935699460000133	shape	0.704403162003	1.0	0.8	n/a	n/a	154.0316329	154.035209894	155.031085014	n/a	oval-horizontal.bmp	oval-horizontal.bmp	circle.bmp
158.11864686	1.913195132999988	face	1.3061850071	1.0	0.8	155.116871834	158.031158924	160.031841993	160.036463022	161.030300856	n/a	20M_FE_O.jpg	21M_FE_O.jpg	21M_FE_O.jpg
161.186080933	1.844944953999999	face	1.2706489563	1.0	0.8	n/a	n/a	163.031025887	163.03468895	164.030280828	n/a	01F_AN_O.jpg	07F_AN_O.jpg	07F_AN_O.jpg
164.157059908	1.8736040590000016	face	0.920310974121	1.0	0.8	n/a	n/a	166.030663967	166.034245968	167.029947996	n/a	FFX_139.jpg	FFZ_102.jpg	FFZ_102.jpg
167.182533979	1.848000049999996	face	1.2390229702	1.0	0.8	n/a	n/a	169.030534029	169.03421402	170.02936697	n/a	23M_AN_O.jpg	23M_AN_O.jpg	22M_AN_O.jpg
170.157186985	1.872771978000003	face	n/a	0.0	0.8	n/a	n/a	172.029958963	172.034307003	173.029755831	n/a	MAZ_146.jpg	MAZ_146.jpg	MAX_233.jpg
173.179412842	1.8501331800000005	face	1.63606882095	1.0	0.8	n/a	n/a	175.029546022	175.033088923	176.02895999	n/a	15F_FE_O.jpg	15F_FE_O.jpg	16F_FE_O.jpg
179.066038847	1.9624180790000023	shape	1.27060890198	1.0	0.8	176.114321947	179.02835989	181.028456926	181.032949924	182.027902842	n/a	oval-horizontal.bmp	oval-vertical.bmp	oval-vertical.bmp
182.135697842	1.892630099999991	shape	0.654787063599	1.0	0.8	n/a	n/a	184.028327942	184.032431841	185.027766943	n/a	circle.bmp	oval-vertical.bmp	oval-vertical.bmp
185.138023853	1.8898251060000173	shape	1.06726408005	1.0	0.8	n/a	n/a	187.027848959	187.031821012	188.027636051	n/a	oval-horizontal.bmp	oval-horizontal.bmp	oval-vertical.bmp
188.137742996	1.8898408420000123	shape	0.819714069366	1.0	0.8	n/a	n/a	190.027583838	190.031147957	191.026293039	n/a	oval-horizontal.bmp	oval-horizontal.bmp	circle.bmp
191.135438919	1.891381979000016	shape	0.820950031281	1.0	0.8	n/a	n/a	193.026820898	193.030395031	194.026141882	n/a	circle.bmp	circle.bmp	oval-vertical.bmp
194.134445906	1.8919301029999929	shape	1.10211110115	1.0	0.8	n/a	n/a	196.026376009	196.030048847	197.026371956	n/a	oval-horizontal.bmp	circle.bmp	circle.bmp
200.085659027	1.940943003000001	face	0.986013889313	1.0	0.8	197.112498045	200.025374889	202.02660203	202.031369925	203.025614023	n/a	FFX_54.jpg	FFX_54.jpg	FAX_51.jpg
203.170732021	1.855721951000021	face	0.853030204773	1.0	0.8	n/a	n/a	205.026453972	205.030034065	206.025522947	n/a	40M_FE_O.BMP	41M_FE_O.jpg	41M_FE_O.jpg
206.182461977	1.842700957999995	face	0.854542970657	1.0	0.8	n/a	n/a	208.025162935	208.028894901	209.02502203	n/a	29M_AN_O.jpg	29M_AN_O.jpg	28M_AN_O.jpg
209.158288956	1.867429971000007	face	0.867911100388	1.0	0.8	n/a	n/a	211.025718927	211.029365063	212.024502993	n/a	FFZ_18.jpg	FFZ_29.jpg	FFZ_29.jpg
212.182173967	1.843533992999994	face	n/a	0.0	0.8	n/a	n/a	214.02570796	214.029644012	215.024296045	n/a	19F_AN_O.jpg	19F_AN_O.jpg	09F_AN_O.jpg
215.159858942	1.8654780390000096	face	1.03449416161	1.0	0.8	n/a	n/a	217.025336981	217.028955936	218.023963928	n/a	MFZ_132.jpg	MFZ_7.jpg	MFZ_7.jpg
221.060528994	1.963212013000004	shape	0.735796928406	1.0	0.8	218.115193844	221.023416996	223.023741007	223.02819705	224.023977995	n/a	circle.bmp	oval-vertical.bmp	oval-vertical.bmp
224.136679888	1.8868210310000109	shape	0.654714822769	1.0	0.8	n/a	n/a	226.023500919	226.027138948	227.022896051	n/a	oval-horizontal.bmp	oval-horizontal.bmp	circle.bmp
227.136051893	1.8870120050000023	shape	n/a	0.0	0.8	n/a	n/a	229.023063898	229.026846886	230.022938013	n/a	oval-horizontal.bmp	oval-vertical.bmp	oval-vertical.bmp
230.135684967	1.8869769570000017	shape	0.682741165161	1.0	0.8	n/a	n/a	232.022661924	232.026335001	233.022243977	n/a	oval-horizontal.bmp	circle.bmp	circle.bmp
233.137961864	1.8844721319999849	shape	0.920686006546	1.0	0.8	n/a	n/a	235.022433996	235.026006937	236.021365881	n/a	oval-horizontal.bmp	oval-horizontal.bmp	oval-vertical.bmp
236.13645196	1.8859519949999992	shape	0.686120986938	1.0	0.8	n/a	n/a	238.022403955	238.026017904	239.021672964	n/a	circle.bmp	circle.bmp	oval-vertical.bmp
242.103051901	1.919286013000004	face	0.736241102219	1.0	0.8	239.111191988	242.021175861	244.022337914	244.027257919	245.02097702	n/a	20M_FE_O.jpg	21M_FE_O.jpg	21M_FE_O.jpg
245.177919865	1.843820094999984	face	0.854022979736	1.0	0.8	n/a	n/a	247.02173996	247.025334835	248.019923925	n/a	07F_AN_O.jpg	07F_AN_O.jpg	01F_AN_O.jpg
248.150497913	1.870490074999992	face	0.731940984726	1.0	0.8	n/a	n/a	250.020987988	250.024551868	251.020336866	n/a	FFZ_102.jpg	FFZ_102.jpg	FFX_139.jpg
251.180557013	1.8402469149999945	face	0.729569911957	1.0	0.8	n/a	n/a	253.020803928	253.024543047	254.020040989	n/a	22M_AN_O.jpg	23M_AN_O.jpg	23M_AN_O.jpg
254.151098013	1.86915683700002	face	0.913592815399	1.0	0.8	n/a	n/a	256.02025485	256.024468899	257.019948959	n/a	MAX_233.jpg	MAZ_146.jpg	MAZ_146.jpg
257.174797058	1.8452489379999968	face	1.25273609161	1.0	0.8	n/a	n/a	259.020045996	259.023639917	260.01939106	n/a	15F_FE_O.jpg	15F_FE_O.jpg	16F_FE_O.jpg
263.057651043	1.96187686899998	shape	0.782076120377	1.0	0.8	260.122889996	263.018960953	265.019527912	265.02411294	266.018806934	n/a	oval-horizontal.bmp	oval-horizontal.bmp	oval-vertical.bmp
266.136078835	1.882657051000024	shape	0.953503131866	0.0	0.8	n/a	n/a	268.018735886	268.022512913	269.019124985	n/a	oval-horizontal.bmp	oval-vertical.bmp	oval-vertical.bmp
269.134409904	1.884479046000024	shape	0.692692041397	1.0	0.8	n/a	n/a	271.01888895	271.02252984	272.018139839	n/a	circle.bmp	circle.bmp	oval-vertical.bmp
272.131451845	1.887207984999975	shape	0.779030799866	1.0	0.8	n/a	n/a	274.01865983	274.022347927	275.017462969	n/a	circle.bmp	oval-vertical.bmp	oval-vertical.bmp
275.134626865	1.8833131790000264	shape	0.79603600502	1.0	0.8	n/a	n/a	277.017940044	277.021699905	278.017147064	n/a	oval-horizontal.bmp	circle.bmp	circle.bmp
278.134938955	1.8825919629999817	shape	0.728307008743	1.0	0.8	n/a	n/a	280.017530918	280.021239042	281.017267942	n/a	oval-horizontal.bmp	oval-horizontal.bmp	circle.bmp
284.07783699	1.939250946000016	face	n/a	0.0	0.8	281.112015009	284.016865969	286.017087936	286.02165103	287.016339064	n/a	FFZ_18.jpg	FAZ_129.jpg	FAZ_129.jpg
287.177657843	1.840136051000001	face	1.19365906715	1.0	0.8	n/a	n/a	289.017793894	289.021391869	290.015899897	n/a	20M_FE_O.jpg	24M_FE_O.jpg	24M_FE_O.jpg
290.151350975	1.865097999999989	face	1.04467105865	1.0	0.8	n/a	n/a	292.016448975	292.020241976	293.016135931	n/a	FAZ_23.jpg	FAX_25.jpg	FAX_25.jpg
293.174860954	1.8421339989999976	face	0.959231138229	1.0	0.8	n/a	n/a	295.016994953	295.020827055	296.016077042	n/a	33M_FE_O.jpg	33M_FE_O.jpg	35M_FE_O.jpg
296.184996843	1.848230123999997	face	0.82016992569	1.0	0.8	n/a	n/a	298.033226967	298.036800861	299.015605927	n/a	01F_AN_O.jpg	01F_AN_O.jpg	02F_AN_O.jpg
299.150833845	1.8813490869999896	face	0.909304857254	1.0	0.8	n/a	n/a	301.032182932	301.035925865	302.031174898	n/a	MFZ_132.jpg	MFZ_132.jpg	MFZ_120.jpg
305.070240974	1.9610939030000047	shape	1.03696513176	1.0	0.8	302.125422001	305.03102684	307.031334877	307.035797834	308.030966997	n/a	oval-horizontal.bmp	oval-vertical.bmp	oval-vertical.bmp
308.151537895	1.8792440889999968	shape	0.658903837204	1.0	0.8	n/a	n/a	310.030781984	310.0344069	311.030247927	n/a	circle.bmp	oval-vertical.bmp	oval-vertical.bmp
311.149265051	1.881130933999998	shape	1.37527704239	1.0	0.8	n/a	n/a	313.030395985	313.034065962	314.030114889	n/a	oval-horizontal.bmp	oval-horizontal.bmp	oval-vertical.bmp
314.151031971	1.8792030810000144	shape	0.790869951248	1.0	0.8	n/a	n/a	316.030235052	316.034096956	317.029710054	n/a	oval-horizontal.bmp	oval-horizontal.bmp	circle.bmp
317.148473024	1.8816299439999968	shape	0.74033498764	1.0	0.8	n/a	n/a	319.030102968	319.033675909	320.029275894	n/a	circle.bmp	circle.bmp	oval-vertical.bmp
320.148767948	1.8810551170000167	shape	n/a	0.0	0.8	n/a	n/a	322.029823065	322.033583879	323.02894783	n/a	oval-horizontal.bmp	circle.bmp	circle.bmp
326.109529018	1.919745922000004	face	1.03873610497	1.0	0.8	323.12389183	326.028678894	328.02927494	328.03400898	329.028211832	n/a	17F_FE_O.jpg	18F_FE_O.jpg	18F_FE_O.jpg
329.191181898	1.8376030919999948	face	0.906081914902	1.0	0.8	n/a	n/a	331.02878499	331.032361984	332.028111935	n/a	42M_AN_O.jpg	43M_AN_O.jpg	43M_AN_O.jpg
332.190997839	1.8371720310000228	face	n/a	0.0	0.8	n/a	n/a	334.02816987	334.031800032	335.028382063	n/a	31M_FE_O.jpg	31M_FE_O.jpg	32M_FE_O.jpg
335.16771698	1.8602919580000048	face	0.720524072647	1.0	0.8	n/a	n/a	337.028008938	337.031579018	338.027631998	n/a	FAZ_212.jpg	FFZ_236.jpg	FFZ_236.jpg
338.194479942	1.8334040650000247	face	0.805099964142	1.0	0.8	n/a	n/a	340.027884007	340.031929016	341.027042866	n/a	06F_FE_O.jpg	06F_FE_O.jpg	08F_FE_O.jpg
341.165290833	1.8619101040000032	face	0.821554899216	1.0	0.8	n/a	n/a	343.027200937	343.030546904	344.027084827	n/a	MAZ_128.jpg	MAZ_128.jpg	MAX_39.jpg
347.063544035	1.963069915999995	shape	0.703905105591	1.0	0.8	344.124553919	347.02626586	349.026613951	349.03106904	350.025918007	n/a	circle.bmp	oval-vertical.bmp	oval-vertical.bmp
350.143946886	1.882327080000039	shape	0.703075885773	1.0	0.8	n/a	n/a	352.026273966	352.030268908	353.025745869	n/a	oval-horizontal.bmp	oval-horizontal.bmp	circle.bmp
353.149276972	1.8768019670000056	shape	1.07056283951	1.0	0.8	n/a	n/a	355.026078939	355.029796839	356.024958849	n/a	oval-horizontal.bmp	oval-vertical.bmp	oval-vertical.bmp
356.149277925	1.876737117999994	shape	0.853802919388	1.0	0.8	n/a	n/a	358.026015043	358.029624939	359.025450945	n/a	oval-horizontal.bmp	circle.bmp	circle.bmp
359.145171881	1.879258155999992	shape	0.900687932968	1.0	0.8	n/a	n/a	361.024430037	361.027978897	362.023939848	n/a	oval-horizontal.bmp	oval-horizontal.bmp	oval-vertical.bmp
362.144336939	1.8802781099999493	shape	1.18342494965	1.0	0.8	n/a	n/a	364.024615049	364.028627872	365.0239079	n/a	circle.bmp	circle.bmp	oval-vertical.bmp
368.081279993	1.9436669350000104	face	1.6198091507	1.0	0.8	365.121671915	368.024250984	370.024946928	370.030104876	371.0233109	n/a	FFZ_18.jpg	FAZ_129.jpg	FAZ_129.jpg
371.185163975	1.8389039039999489	face	0.900539875031	1.0	0.8	n/a	n/a	373.024067879	373.027509928	374.023308992	n/a	20M_FE_O.jpg	24M_FE_O.jpg	24M_FE_O.jpg
374.168792963	1.854391098000008	face	0.703117847443	1.0	0.8	n/a	n/a	376.023184061	376.026820898	377.022964001	n/a	FAZ_23.jpg	FAX_25.jpg	FAX_25.jpg
377.190485001	1.8333950040000104	face	0.653525829315	1.0	0.8	n/a	n/a	379.023880005	379.027452946	380.022701025	n/a	33M_FE_O.jpg	33M_FE_O.jpg	35M_FE_O.jpg
380.189450026	1.8335649960000069	face	0.749858140945	1.0	0.8	n/a	n/a	382.023015022	382.026623011	383.022321939	n/a	01F_AN_O.jpg	01F_AN_O.jpg	02F_AN_O.jpg
383.165719986	1.8571870330000024	face	0.798940896988	1.0	0.8	n/a	n/a	385.022907019	385.026793003	386.021786928	394.420829058	MFZ_132.jpg	MFZ_132.jpg	MFZ_120.jpg
