onset	duration	trial_type	response_time	accuracy_binarized	tr_seconds	cueStartTime	cueEndTime	trialEndTime	fixStartTime	fixEndTime	runEndTime	stimLeft	stimTop	stimRight
11.12559199333191	1.934535026550293	shape	1.30038905144	1.0	0.8	8.066404819488525	11.059283018112184	13.060127019882202	13.092123985290527	14.09249496459961	n/a	oval-horizontal.bmp	oval-horizontal.bmp	oval-vertical.bmp
14.208956003189089	1.8675990104675275	shape	0.766885995865	1.0	0.8	n/a	n/a	16.076555013656616	16.108811855316162	17.075850009918213	n/a	oval-horizontal.bmp	oval-vertical.bmp	oval-vertical.bmp
17.175636053085327	1.9009418487548828	shape	0.767222166061	1.0	0.8	n/a	n/a	19.07657790184021	19.10885787010193	20.075883865356445	n/a	circle.bmp	circle.bmp	oval-vertical.bmp
20.17566299438477	1.9009530544280933	shape	0.667222976685	1.0	0.8	n/a	n/a	22.076616048812863	22.108832836151123	23.07590889930725	n/a	circle.bmp	oval-vertical.bmp	oval-vertical.bmp
23.175683975219727	1.900934934616085	shape	0.767249822617	1.0	0.8	n/a	n/a	25.07661890983581	25.108860969543457	26.075934886932373	n/a	oval-horizontal.bmp	circle.bmp	circle.bmp
26.17570900917053	1.9009389877319336	shape	0.867230892181	1.0	0.8	n/a	n/a	28.076647996902462	28.108886003494263	29.075963020324707	n/a	oval-horizontal.bmp	oval-horizontal.bmp	circle.bmp
32.17564582824707	1.919510126113892	face	0.852444887161	1.0	0.8	29.13868498802185	32.09264898300171	34.09515595436096	34.125993967056274	35.0956449508667	n/a	FAZ_23.jpg	FAZ_23.jpg	FAX_43.jpg
35.259459018707275	1.835577011108405	face	0.99911904335	1.0	0.8	n/a	n/a	37.09503602981568	37.12610697746277	38.09568786621094	n/a	26M_FE_O.jpg	26M_FE_O.jpg	27M_FE_O.BMP
38.22807192802429	1.866694927215576	face	0.699174165726	1.0	0.8	n/a	n/a	40.09476685523987	40.126112937927246	41.09570598602295	n/a	MFX_16.jpg	MFZ_50.jpg	MFZ_50.jpg
41.2596230506897	1.835444927215576	face	0.799129009247	1.0	0.8	n/a	n/a	43.09506797790527	43.12609004974365	44.09576201438904	n/a	09F_AN_O.jpg	09F_AN_O.jpg	10F_AN_O.jpg
44.25954484939575	1.8355650901794505	face	0.732586860657	1.0	0.8	n/a	n/a	46.0951099395752	46.12607002258301	47.09578704833984	n/a	38M_AN_O.BMP	39M_AN_O.jpg	39M_AN_O.jpg
47.22734093666077	1.8677608966827464	face	1.26582694054	1.0	0.8	n/a	n/a	49.09510183334351	49.12610483169556	50.09580397605896	n/a	FFZ_102.jpg	FFX_130.jpg	FFX_130.jpg
53.14315104484558	1.9361019134521484	shape	0.700480937958	1.0	0.8	50.15466499328613	53.078492879867554	55.07925295829773	55.10944986343384	56.0791609287262	n/a	oval-horizontal.bmp	oval-vertical.bmp	oval-vertical.bmp
56.176389932632446	1.902677059173584	shape	0.633133172989	1.0	0.8	n/a	n/a	58.07906699180603	58.109513998031616	59.079200983047485	n/a	circle.bmp	oval-vertical.bmp	oval-vertical.bmp
59.17646884918213	1.902662992477417	shape	1.13316082954	1.0	0.8	n/a	n/a	61.079131841659546	61.10959196090698	62.079246044158936	n/a	oval-horizontal.bmp	oval-horizontal.bmp	oval-vertical.bmp
62.17640805244446	1.902720928192139	shape	0.699921131134	1.0	0.8	n/a	n/a	64.0791289806366	64.10957884788513	65.0792179107666	n/a	oval-horizontal.bmp	oval-horizontal.bmp	circle.bmp
65.17646098136902	1.9026269912719729	shape	0.699880123138	1.0	0.8	n/a	n/a	67.07908797264099	67.10962700843811	68.07927584648132	n/a	circle.bmp	circle.bmp	oval-vertical.bmp
68.17646789550781	1.902661085128784	shape	0.633074998856	1.0	0.8	n/a	n/a	70.0791289806366	70.10956382751465	71.07932591438293	n/a	oval-horizontal.bmp	circle.bmp	circle.bmp
74.20993995666504	1.8689939975738523	face	1.36576008797	1.0	0.8	71.13990497589111	74.09527587890625	76.07893395423889	76.10969805717468	77.07930302619934	n/a	03F_FE_O.jpg	05F_FE_O.jpg	05F_FE_O.jpg
77.20983386039734	1.8689491748809808	face	1.23177099228	1.0	0.8	n/a	n/a	79.07878303527832	79.10969996452332	80.07934999465942	n/a	FAZ_32.jpg	FAZ_32.jpg	FAX_45.jpg
80.2097909450531	1.869023084640503	face	1.59845900536	1.0	0.8	n/a	n/a	82.0788140296936	82.10973787307739	83.07935285568237	n/a	MAZ_128.jpg	MAZ_101.jpg	MAZ_101.jpg
83.2439980506897	1.834829807281494	face	0.999194860458	1.0	0.8	n/a	n/a	85.07882785797119	85.10969400405884	86.07940697669983	n/a	11F_AN_O.jpg	11F_AN_O.jpg	12F_AN_O.jpg
86.24335789680481	1.835505008697509	face	0.86585187912	1.0	0.8	n/a	n/a	88.07886290550232	88.10971188545227	89.07938003540039	n/a	26M_FE_O.jpg	33M_FE_O.jpg	33M_FE_O.jpg
89.22919487953186	1.8662371635437007	face	0.96756696701	1.0	0.8	n/a	n/a	91.09543204307556	91.12643194198608	92.06278395652772	n/a	MFZ_132.jpg	MFZ_132.jpg	MFZ_120.jpg
95.14347195625304	1.9360270500183248	shape	0.86710691452	1.0	0.8	92.12355589866638	95.0788118839264	97.07949900627136	97.10975790023804	98.07947897911072	n/a	circle.bmp	oval-vertical.bmp	oval-vertical.bmp
98.19354701042175	1.9024598598480225	shape	0.732918977737	1.0	0.8	n/a	n/a	100.09600687026978	100.12650799751282	101.06284284591676	n/a	oval-horizontal.bmp	oval-horizontal.bmp	circle.bmp
101.15993905067444	1.9360589981079244	shape	0.56640791893	1.0	0.8	n/a	n/a	103.09599804878236	103.12651205062866	104.062824010849	n/a	oval-horizontal.bmp	oval-vertical.bmp	oval-vertical.bmp
104.15993785858154	1.9360480308532573	shape	0.633282899857	1.0	0.8	n/a	n/a	106.0959858894348	106.12655401229858	107.06291198730467	n/a	oval-horizontal.bmp	circle.bmp	circle.bmp
107.1599600315094	1.936147928237915	shape	0.766463041306	1.0	0.8	n/a	n/a	109.09610795974731	109.1265869140625	110.06286096572876	n/a	oval-horizontal.bmp	oval-horizontal.bmp	oval-vertical.bmp
110.16000390052795	1.9360089302062848	shape	0.566419839859	1.0	0.8	n/a	n/a	112.09601283073424	112.12655401229858	113.06292295455933	n/a	circle.bmp	circle.bmp	oval-vertical.bmp
116.16005492210388	1.935719966888442	face	0.666693210602	1.0	0.8	113.12477588653564	116.07893705368042	118.09577488899232	118.12662887573242	119.06295895576476	n/a	FAZ_23.jpg	FAZ_23.jpg	FAX_43.jpg
119.22719883918762	1.8684740066528176	face	0.732481956482	1.0	0.8	n/a	n/a	121.09567284584044	121.12664985656738	122.06292986869812	n/a	26M_FE_O.jpg	26M_FE_O.jpg	27M_FE_O.BMP
122.19342803955078	1.9022829532623435	face	0.799247026443	1.0	0.8	n/a	n/a	124.09571099281312	124.1266520023346	125.06297588348389	n/a	MFZ_50.jpg	MFZ_50.jpg	MFX_16.jpg
125.22713589668274	1.868636131286621	face	0.799134016037	1.0	0.8	n/a	n/a	127.09577202796936	127.12668895721436	128.0630009174347	n/a	10F_AN_O.jpg	09F_AN_O.jpg	09F_AN_O.jpg
128.2270150184631	1.868654012680082	face	0.632586956024	1.0	0.8	n/a	n/a	130.0956690311432	130.12670302391052	131.0630168914795	n/a	38M_AN_O.BMP	39M_AN_O.jpg	39M_AN_O.jpg
131.19349002838135	1.902251958847046	face	1.06580710411	1.0	0.8	n/a	n/a	133.0957419872284	133.12674188613892	134.0630488395691	n/a	FFZ_102.jpg	FFX_130.jpg	FFX_130.jpg
137.16030287742615	1.9362239837646484	shape	0.733874082565	1.0	0.8	134.1268389225006	137.0957510471344	139.0965268611908	139.1267910003662	140.06310987472534	n/a	oval-horizontal.bmp	oval-horizontal.bmp	oval-vertical.bmp
140.17706298828125	1.9026429653167725	shape	0.53307890892	1.0	0.8	n/a	n/a	142.07970595359802	142.11013793945312	143.07975888252258	n/a	oval-horizontal.bmp	oval-vertical.bmp	oval-vertical.bmp
143.19369888305664	1.9025659561157229	shape	0.599700927734	1.0	0.8	n/a	n/a	145.09626483917236	145.12681889533997	146.06314897537231	n/a	circle.bmp	circle.bmp	oval-vertical.bmp
146.1771080493927	1.9026329517364504	shape	0.432955980301	1.0	0.8	n/a	n/a	148.07974100112915	148.11023783683777	149.07988500595093	n/a	circle.bmp	oval-vertical.bmp	oval-vertical.bmp
149.1937289237976	1.9026150703430176	shape	0.599727869034	1.0	0.8	n/a	n/a	151.09634399414062	151.12689399719238	152.063227891922	n/a	oval-horizontal.bmp	circle.bmp	circle.bmp
152.17714190483093	1.902689933776856	shape	0.76643204689	1.0	0.8	n/a	n/a	154.0798318386078	154.1102259159088	155.07990384101868	n/a	oval-horizontal.bmp	oval-horizontal.bmp	circle.bmp
158.1939549446106	1.9021689891815183	face	1.13328695297	1.0	0.8	155.14564299583435	158.07928204536438	160.09612393379211	160.12689685821533	161.06327986717224	n/a	20M_FE_O.jpg	21M_FE_O.jpg	21M_FE_O.jpg
161.22734189033508	1.8686280250549032	face	0.865838050842	1.0	0.8	n/a	n/a	163.09596991539	163.1270048618317	164.063334941864	n/a	01F_AN_O.jpg	07F_AN_O.jpg	07F_AN_O.jpg
164.21045184135437	1.868969202041626	face	0.965109825134	1.0	0.8	n/a	n/a	166.079421043396	166.1103298664093	167.0800440311432	n/a	FFX_139.jpg	FFZ_102.jpg	FFZ_102.jpg
167.2446358203888	1.8348212242126465	face	0.865705966949	1.0	0.8	n/a	n/a	169.07945704460144	169.1103630065918	170.08004593849182	n/a	23M_AN_O.jpg	23M_AN_O.jpg	22M_AN_O.jpg
170.21066999435425	1.868840932846069	face	0.798328876495	1.0	0.8	n/a	n/a	172.07951092720032	172.11037182807922	173.08005499839783	n/a	MAZ_146.jpg	MAZ_146.jpg	MAX_233.jpg
173.24415802955627	1.835359811782837	face	0.965929985046	1.0	0.8	n/a	n/a	175.0795178413391	175.11038088798523	176.08006381988525	n/a	15F_FE_O.jpg	15F_FE_O.jpg	16F_FE_O.jpg
179.1445369720459	1.9357280731200888	shape	0.700495004654	1.0	0.8	176.14744091033936	179.07941699028015	181.080265045166	181.11037802696228	182.0800929069519	n/a	oval-horizontal.bmp	oval-vertical.bmp	oval-vertical.bmp
182.19399094581604	1.8692760467529297	shape	0.566334962845	1.0	0.8	n/a	n/a	184.06326699256897	184.09386086463928	185.0634169578552	n/a	circle.bmp	oval-vertical.bmp	oval-vertical.bmp
185.17728686332703	1.9028229713440223	shape	0.833127975464	1.0	0.8	n/a	n/a	187.08010983467105	187.11047887802124	188.08017802238464	n/a	oval-horizontal.bmp	oval-horizontal.bmp	oval-vertical.bmp
188.1940038204193	1.869334220886259	shape	0.632770061493	1.0	0.8	n/a	n/a	190.0633380413056	190.0938940048217	191.06349086761475	n/a	oval-horizontal.bmp	oval-horizontal.bmp	circle.bmp
191.1772940158844	1.9028198719024945	shape	0.766425848007	1.0	0.8	n/a	n/a	193.0801138877869	193.11050987243647	194.08020401000977	n/a	circle.bmp	circle.bmp	oval-vertical.bmp
194.19402694702148	1.8692851066589071	shape	0.766236066818	1.0	0.8	n/a	n/a	196.0633120536804	196.09391593933103	197.06351494789124	n/a	oval-horizontal.bmp	circle.bmp	circle.bmp
200.16078686714167	1.902755975723324	face	0.69987487793	1.0	0.8	197.13039898872373	200.06285095214844	202.063542842865	202.0939378738404	203.06353282928467	n/a	FFX_54.jpg	FFX_54.jpg	FAX_51.jpg
203.22748398780823	1.8688139915466595	face	0.699388980865	1.0	0.8	n/a	n/a	205.0962979793549	205.1272690296173	206.0636069774628	n/a	40M_FE_O.BMP	41M_FE_O.jpg	41M_FE_O.jpg
206.2274148464203	1.868887186050415	face	0.565971851349	1.0	0.8	n/a	n/a	208.0963020324707	208.12725591659543	209.0635769367218	n/a	29M_AN_O.jpg	29M_AN_O.jpg	28M_AN_O.jpg
209.2111439704895	1.8686408996582031	face	0.59835100174	1.0	0.8	n/a	n/a	211.0797848701477	211.11063885688785	212.08034300804127	n/a	FFZ_18.jpg	FFZ_29.jpg	FFZ_29.jpg
212.2611198425293	1.8351900577545168	face	0.665791988373	1.0	0.8	n/a	n/a	214.0963099002838	214.1274528503418	215.06365990638733	n/a	19F_AN_O.jpg	19F_AN_O.jpg	09F_AN_O.jpg
215.21101903915405	1.868790864944458	face	0.665065050125	1.0	0.8	n/a	n/a	217.0798099040985	217.1107189655304	218.08040690422047	n/a	MFZ_132.jpg	MFZ_7.jpg	MFZ_7.jpg
221.14437985420227	1.936174154281616	shape	0.700485229492	1.0	0.8	218.15043592453003	221.0797019004821	223.0805540084839	223.1106848716736	224.080472946167	n/a	circle.bmp	oval-vertical.bmp	oval-vertical.bmp
224.19425296783447	1.869339942932129	shape	0.69980096817	1.0	0.8	n/a	n/a	226.0635929107666	226.09407997131348	227.0637028217316	n/a	oval-horizontal.bmp	oval-horizontal.bmp	circle.bmp
227.17762088775635	1.9028351306915283	shape	0.566462993622	1.0	0.8	n/a	n/a	229.08045601844788	229.1108238697052	230.0804748535156	n/a	oval-horizontal.bmp	oval-vertical.bmp	oval-vertical.bmp
230.19430589675903	1.8693499565124512	shape	0.56626701355	1.0	0.8	n/a	n/a	232.06365585327148	232.0941269397736	233.0637810230255	n/a	oval-horizontal.bmp	circle.bmp	circle.bmp
233.17760586738584	1.902913093566952	shape	0.833186864853	1.0	0.8	n/a	n/a	235.0805189609528	235.11086583137512	236.0805439949036	n/a	oval-horizontal.bmp	oval-horizontal.bmp	oval-vertical.bmp
236.19435286521912	1.8692209720611568	shape	0.666251897812	1.0	0.8	n/a	n/a	238.06357383728027	238.0942759513855	239.0638530254364	n/a	circle.bmp	circle.bmp	oval-vertical.bmp
242.177827835083	1.902420997619629	face	1.39984297752	1.0	0.8	239.1333930492401	242.0631358623505	244.08024883270264	244.11085987091064	245.08058404922485	n/a	20M_FE_O.jpg	21M_FE_O.jpg	21M_FE_O.jpg
245.2610349655152	1.8021910190581991	face	0.832700014114	1.0	0.8	n/a	n/a	247.06322598457336	247.0942678451538	248.06388688087463	n/a	07F_AN_O.jpg	07F_AN_O.jpg	01F_AN_O.jpg
248.2110660076141	1.8690309524536133	face	1.13177990913	1.0	0.8	n/a	n/a	250.0800969600677	250.110985994339	251.08059692382807	n/a	FFZ_102.jpg	FFZ_102.jpg	FFX_139.jpg
251.261344909668	1.8018579483031945	face	0.999189138412	1.0	0.8	n/a	n/a	253.0632028579712	253.0943489074707	254.063945055008	n/a	22M_AN_O.jpg	23M_AN_O.jpg	23M_AN_O.jpg
254.21142387390137	1.868638038635254	face	0.665059804916	1.0	0.8	n/a	n/a	256.0800619125366	256.1109938621521	257.0806348323822	n/a	MAX_233.jpg	MAZ_146.jpg	MAZ_146.jpg
257.26137590408325	1.801928043365536	face	0.832619905472	1.0	0.8	n/a	n/a	259.0633039474488	259.09440088272095	260.0639889240265	n/a	15F_FE_O.jpg	15F_FE_O.jpg	16F_FE_O.jpg
263.12839698791504	1.9356889724731443	shape	0.700425863266	1.0	0.8	260.1348729133606	263.0633358955384	265.0640859603882	265.0943558216095	266.0640048980713	n/a	oval-horizontal.bmp	oval-horizontal.bmp	oval-vertical.bmp
266.17782402038574	1.902875900268555	shape	0.599760055542	1.0	0.8	n/a	n/a	268.0806999206543	268.111093044281	269.0807168483734	n/a	oval-horizontal.bmp	oval-vertical.bmp	oval-vertical.bmp
269.19455790519714	1.869271993637085	shape	0.599716186523	1.0	0.8	n/a	n/a	271.06382989883423	271.094388961792	272.0640480518341	n/a	circle.bmp	circle.bmp	oval-vertical.bmp
272.17785692214966	1.9028730392456048	shape	0.566597223282	1.0	0.8	n/a	n/a	274.08072996139526	274.11114287376404	275.0808160305023	n/a	circle.bmp	oval-vertical.bmp	oval-vertical.bmp
275.1946339607239	1.86926794052124	shape	0.666303873062	1.0	0.8	n/a	n/a	277.0639019012451	277.09447288513184	278.06410694122314	n/a	oval-horizontal.bmp	circle.bmp	circle.bmp
278.17795300483704	1.902899980545044	shape	0.733034133911	1.0	0.8	n/a	n/a	280.0808529853821	280.1111788749695	281.08084893226624	n/a	oval-horizontal.bmp	oval-horizontal.bmp	circle.bmp
284.1612780094147	1.902423858642578	face	1.13334918022	1.0	0.8	281.15452885627747	284.08022904396057	286.06370186805725	286.09448504447937	287.06417894363403	n/a	FFZ_18.jpg	FAZ_129.jpg	FAZ_129.jpg
287.2448320388794	1.8354969024658203	face	1.43230390549	1.0	0.8	n/a	n/a	289.0803289413452	289.1112389564514	290.08090591430664	n/a	20M_FE_O.jpg	24M_FE_O.jpg	24M_FE_O.jpg
290.2283148765564	1.8352670669556232	face	0.765967130661	1.0	0.8	n/a	n/a	292.063581943512	292.09463596343994	293.06417989730835	n/a	FAZ_23.jpg	FAX_25.jpg	FAX_25.jpg
293.2450239658356	1.835345983505192	face	0.699305057526	1.0	0.8	n/a	n/a	295.0803699493408	295.1113359928131	296.08089900016785	n/a	33M_FE_O.jpg	33M_FE_O.jpg	35M_FE_O.jpg
296.26145601272583	1.802103042602596	face	0.799174070358	1.0	0.8	n/a	n/a	298.0635590553284	298.0945858955384	299.064218044281	n/a	01F_AN_O.jpg	01F_AN_O.jpg	02F_AN_O.jpg
299.21157598495483	1.868857860565185	face	0.665917158127	1.0	0.8	n/a	n/a	301.08043384552	301.11133003234863	302.0809998512268	n/a	MFZ_132.jpg	MFZ_132.jpg	MFZ_120.jpg
305.144966840744	1.936251163482666	shape	0.533655881882	1.0	0.8	302.1561439037323	305.08029985427856	307.0812180042267	307.1113450527191	308.0810468196869	n/a	oval-horizontal.bmp	oval-vertical.bmp	oval-vertical.bmp
308.1948540210724	1.8693149089813232	shape	0.599959135056	1.0	0.8	n/a	n/a	310.0641689300537	310.0946488380432	311.06435203552246	n/a	circle.bmp	oval-vertical.bmp	oval-vertical.bmp
311.1781029701233	1.9029500484466555	shape	0.866550207138	1.0	0.8	n/a	n/a	313.08105301856995	313.1113848686218	314.0810329914093	n/a	oval-horizontal.bmp	oval-horizontal.bmp	oval-vertical.bmp
314.19487404823303	1.8693749904632568	shape	0.599787950516	1.0	0.8	n/a	n/a	316.0642490386963	316.0947070121765	317.06435894966125	n/a	oval-horizontal.bmp	oval-horizontal.bmp	circle.bmp
317.1782069206238	1.90279507637024	shape	0.533077955246	1.0	0.8	n/a	n/a	319.081001996994	319.1114549636841	320.08106994628906	n/a	circle.bmp	circle.bmp	oval-vertical.bmp
320.1949479579925	1.8692500591279213	shape	0.633013963699	1.0	0.8	n/a	n/a	322.0641980171204	322.0947468280792	323.06440687179565	n/a	oval-horizontal.bmp	circle.bmp	circle.bmp
326.17835783958435	1.902480125427246	face	1.19981217384	1.0	0.8	323.13917303085327	326.0639410018921	328.0808379650116	328.1114778518677	329.0811839103699	n/a	17F_FE_O.jpg	18F_FE_O.jpg	18F_FE_O.jpg
329.26167702674866	1.8021600246429443	face	0.765846967697	1.0	0.8	n/a	n/a	331.0638370513916	331.0948688983917	332.06452798843384	n/a	42M_AN_O.jpg	43M_AN_O.jpg	43M_AN_O.jpg
332.2449679374695	1.8356819152832031	face	0.86584687233	1.0	0.8	n/a	n/a	334.0806498527527	334.1115369796753	335.08123087883	n/a	31M_FE_O.jpg	31M_FE_O.jpg	32M_FE_O.jpg
335.2286648750305	1.835206985473576	face	0.732530117035	1.0	0.8	n/a	n/a	337.0638718605041	337.0949149131775	338.0645978450775	n/a	FAZ_212.jpg	FFZ_236.jpg	FFZ_236.jpg
338.2451648712158	1.8355131149291992	face	0.899208068848	1.0	0.8	n/a	n/a	340.080677986145	340.11160588264465	341.0812120437622	n/a	06F_FE_O.jpg	06F_FE_O.jpg	08F_FE_O.jpg
341.22842502593994	1.83544397354126	face	0.799175024033	1.0	0.8	n/a	n/a	343.0638689994812	343.0949809551239	344.0645740032196	n/a	MAZ_128.jpg	MAZ_128.jpg	MAX_39.jpg
347.1285820007324	1.936048030853272	shape	0.867300987244	1.0	0.8	344.1412169933319	347.0639159679413	349.0646300315857	349.0949800014496	350.0645899772644	n/a	circle.bmp	oval-vertical.bmp	oval-vertical.bmp
350.1783800125122	1.9029409885406487	shape	0.633143901825	1.0	0.8	n/a	n/a	352.08132100105286	352.111713886261	353.0813229084015	n/a	oval-horizontal.bmp	oval-horizontal.bmp	circle.bmp
353.1950809955597	1.869433879852295	shape	0.499841928482	1.0	0.8	n/a	n/a	355.064514875412	355.0949728488922	356.0646560192108	n/a	oval-horizontal.bmp	oval-vertical.bmp	oval-vertical.bmp
356.1784110069275	1.9029099941253664	shape	0.666548967361	1.0	0.8	n/a	n/a	358.08132100105286	358.1117148399353	359.08142495155334	n/a	oval-horizontal.bmp	circle.bmp	circle.bmp
359.2121570110321	1.8692879676818848	shape	0.76646399498	1.0	0.8	n/a	n/a	361.081444978714	361.1117260456085	362.0814049243927	n/a	oval-horizontal.bmp	oval-horizontal.bmp	oval-vertical.bmp
362.19511795043945	1.869354009628296	shape	0.599745035172	1.0	0.8	n/a	n/a	364.06447196006775	364.0950520038605	365.0647530555725	n/a	circle.bmp	circle.bmp	oval-vertical.bmp
368.145290851593	1.93585920333868	face	0.66663813591	1.0	0.8	365.14214301109314	368.0640289783478	370.0811500549317	370.1117749214173	371.0814568996429	n/a	FFZ_18.jpg	FAZ_129.jpg	FAZ_129.jpg
371.2621738910675	1.8019061088562007	face	1.03267598152	1.0	0.8	n/a	n/a	373.0640799999237	373.0951988697052	374.0647978782654	n/a	20M_FE_O.jpg	24M_FE_O.jpg	24M_FE_O.jpg
374.2119998931885	1.869060993194637	face	0.698436975479	1.0	0.8	n/a	n/a	376.0810608863831	376.11189103126526	377.08150696754456	n/a	FAZ_23.jpg	FAX_25.jpg	FAX_25.jpg
377.2621829509735	1.8019258975982664	face	0.63259100914	1.0	0.8	n/a	n/a	379.0641088485718	379.0951728820801	380.0648469924927	n/a	33M_FE_O.jpg	33M_FE_O.jpg	35M_FE_O.jpg
380.2454090118408	1.8355698585510825	face	0.632431030273	1.0	0.8	n/a	n/a	382.0809788703919	382.111918926239	383.08151388168335	n/a	01F_AN_O.jpg	01F_AN_O.jpg	02F_AN_O.jpg
383.2286920547485	1.8354978561401936	face	0.732682943344	1.0	0.8	n/a	n/a	385.0641899108887	385.0952558517456	386.0650179386139	394.4649958610535	MFZ_132.jpg	MFZ_132.jpg	MFZ_120.jpg
