onset	duration	trial_type	response_time	accuracy_binarized	tr_seconds	cueStartTime	cueEndTime	trialEndTime	fixStartTime	fixEndTime	runEndTime	stimLeft	stimTop	stimRight
11.0553188324	1.9694390297	shape	0.781846046448	1.0	0.8	8.02020406723	11.0077588558	13.0247578621	13.0293450356	14.0237419605	n/a	oval-horizontal.bmp	oval-horizontal.bmp	oval-vertical.bmp
14.1336939335	1.8904581069999988	shape	0.997767210007	1.0	0.8	n/a	n/a	16.0241520405	16.0277240276	17.0236120224	n/a	oval-horizontal.bmp	oval-vertical.bmp	oval-vertical.bmp
17.1233048439	1.900673151	shape	0.835842132568	1.0	0.8	n/a	n/a	19.0239779949	19.027561903	20.0227358341	n/a	circle.bmp	circle.bmp	oval-vertical.bmp
20.1220018864	1.9016020298	shape	0.614151000977	1.0	0.8	n/a	n/a	22.0236039162	22.0272328854	23.0229618549	n/a	circle.bmp	oval-vertical.bmp	oval-vertical.bmp
23.1238429546	1.8991639613999995	shape	1.02074098587	1.0	0.8	n/a	n/a	25.023006916	25.0269489288	26.0228290558	n/a	oval-horizontal.bmp	circle.bmp	circle.bmp
26.1212399006	1.9008860588000007	shape	0.596616983414	1.0	0.8	n/a	n/a	28.0221259594	28.0264830589	29.0221688747	n/a	oval-horizontal.bmp	oval-horizontal.bmp	circle.bmp
32.0865280628	1.9357638358999976	face	0.725997924805	1.0	0.8	29.0966148376	32.0214939117	34.0222918987	34.0273959637	35.0214788914	n/a	FAZ_23.jpg	FAZ_23.jpg	FAX_43.jpg
35.164908886	1.8569769858999976	face	0.628148078918	1.0	0.8	n/a	n/a	37.0218858719	37.0256149769	38.0209360123	n/a	26M_FE_O.jpg	26M_FE_O.jpg	27M_FE_O.BMP
38.1407899857	1.8810338973999947	face	0.650729894638	1.0	0.8	n/a	n/a	40.0218238831	40.0259618759	41.0207009315	n/a	MFX_16.jpg	MFZ_50.jpg	MFZ_50.jpg
41.1713688374	1.850111007599999	face	0.652553081512	1.0	0.8	n/a	n/a	43.021479845	43.0251469612	44.0205419064	n/a	09F_AN_O.jpg	09F_AN_O.jpg	10F_AN_O.jpg
44.1590118408	1.8623452187	face	0.600339889526	1.0	0.8	n/a	n/a	46.0213570595	46.0250258446	47.0204219818	n/a	38M_AN_O.BMP	39M_AN_O.jpg	39M_AN_O.jpg
47.1416339874	1.8789348603	face	1.10310912132	1.0	0.8	n/a	n/a	49.0205688477	49.0242669582	50.0198278427	n/a	FFZ_102.jpg	FFX_130.jpg	FFX_130.jpg
53.0566859245	1.9636249542999948	shape	1.28366184235	1.0	0.8	50.0959429741	53.0193579197	55.0203108788	55.0248959064	56.019659996	n/a	oval-horizontal.bmp	oval-vertical.bmp	oval-vertical.bmp
56.1187250614	1.9007139205999977	shape	0.626255989075	1.0	0.8	n/a	n/a	58.019438982	58.0230178833	59.0186810493	n/a	circle.bmp	oval-vertical.bmp	oval-vertical.bmp
59.1187160015	1.900466919000003	shape	0.775533914566	1.0	0.8	n/a	n/a	61.0191829205	61.0227930546	62.0192449093	n/a	oval-horizontal.bmp	oval-horizontal.bmp	oval-vertical.bmp
62.1209259033	1.897796153999998	shape	0.609798908234	1.0	0.8	n/a	n/a	64.0187220573	64.022785902	65.0182020664	n/a	oval-horizontal.bmp	oval-horizontal.bmp	circle.bmp
65.1188600063	1.8995928765000087	shape	0.859843969345	1.0	0.8	n/a	n/a	67.0184528828	67.0223460197	68.0173809528	n/a	circle.bmp	circle.bmp	oval-vertical.bmp
68.1207339764	1.8971340655999995	shape	0.642374038696	1.0	0.8	n/a	n/a	70.017868042	70.0214719772	71.0176389217	n/a	oval-horizontal.bmp	circle.bmp	circle.bmp
74.1033129692	1.914859056499992	face	0.842249155045	1.0	0.8	71.0940618515	74.0172190666	76.0181720257	76.0231368542	77.0176990032	n/a	03F_FE_O.jpg	05F_FE_O.jpg	05F_FE_O.jpg
77.1412699223	1.875895023300004	face	0.852668046951	1.0	0.8	n/a	n/a	79.0171649456	79.020927906	80.0160338879	n/a	FAZ_32.jpg	FAZ_32.jpg	FAX_45.jpg
80.139690876	1.8777921199999952	face	0.702389955521	1.0	0.8	n/a	n/a	82.017482996	82.0210669041	83.0160610676	n/a	MAZ_128.jpg	MAZ_101.jpg	MAZ_101.jpg
83.1590418816	1.8579440115999968	face	0.607069969177	1.0	0.8	n/a	n/a	85.0169858932	85.0206329823	86.0161449909	n/a	11F_AN_O.jpg	11F_AN_O.jpg	12F_AN_O.jpg
86.1584839821	1.858042955400009	face	0.590265989304	1.0	0.8	n/a	n/a	88.0165269375	88.0207278728	89.0154500008	n/a	26M_FE_O.jpg	33M_FE_O.jpg	33M_FE_O.jpg
89.1395349503	1.8763880728999995	face	0.635359048843	1.0	0.8	n/a	n/a	91.0159230232	91.0195169449	92.0149388313	n/a	MFZ_132.jpg	MFZ_132.jpg	MFZ_120.jpg
95.0528378487	1.9625551700000017	shape	0.789660930634	1.0	0.8	92.0938880444	95.0147509575	97.0153930187	97.0199079514	98.0143239498	n/a	circle.bmp	oval-vertical.bmp	oval-vertical.bmp
98.1198029518	1.8948760031999967	shape	0.539271116257	1.0	0.8	n/a	n/a	100.014678955	100.019049883	101.014082909	n/a	oval-horizontal.bmp	oval-horizontal.bmp	circle.bmp
101.119369984	1.8944299220000005	shape	0.822962999344	0.0	0.8	n/a	n/a	103.013799906	103.017448902	104.01376605	n/a	oval-horizontal.bmp	oval-vertical.bmp	oval-vertical.bmp
104.120085001	1.8941490649999928	shape	0.638010978699	1.0	0.8	n/a	n/a	106.014234066	106.017900944	107.013300896	n/a	oval-horizontal.bmp	circle.bmp	circle.bmp
107.11668396	1.8971059320000023	shape	1.0876750946	1.0	0.8	n/a	n/a	109.013789892	109.017577887	110.013059855	n/a	oval-horizontal.bmp	oval-horizontal.bmp	oval-vertical.bmp
110.119467974	1.893593072999991	shape	1.23942685127	1.0	0.8	n/a	n/a	112.013061047	112.016852856	113.012712955	n/a	circle.bmp	circle.bmp	oval-vertical.bmp
116.070451021	1.9425430300000104	face	0.587419986725	1.0	0.8	113.094809055	116.012697935	118.012994051	118.017575026	119.011920929	n/a	FAZ_23.jpg	FAZ_23.jpg	FAX_43.jpg
119.146294832	1.866099119000012	face	0.56884098053	1.0	0.8	n/a	n/a	121.012393951	121.016260862	122.011847973	n/a	26M_FE_O.jpg	26M_FE_O.jpg	27M_FE_O.BMP
122.133162022	1.8785929680000064	face	0.670944929123	1.0	0.8	n/a	n/a	124.01175499	124.015426874	125.011616945	n/a	MFZ_50.jpg	MFZ_50.jpg	MFX_16.jpg
125.163200855	1.849637985000001	face	0.769897937775	1.0	0.8	n/a	n/a	127.01283884	127.016422033	128.010375977	n/a	10F_AN_O.jpg	09F_AN_O.jpg	09F_AN_O.jpg
128.147856951	1.8632569309999951	face	0.552311897278	1.0	0.8	n/a	n/a	130.011113882	130.014520884	131.010763884	n/a	38M_AN_O.BMP	39M_AN_O.jpg	39M_AN_O.jpg
131.136965036	1.873935938000017	face	0.803184986115	0.0	0.8	n/a	n/a	133.010900974	133.014487028	134.010874987	n/a	FFZ_102.jpg	FFX_130.jpg	FFX_130.jpg
137.064019918	1.9634499549999875	shape	0.869265079498	1.0	0.8	134.09621501	137.026973009	139.027469873	139.032234907	140.026530981	n/a	oval-horizontal.bmp	oval-horizontal.bmp	oval-vertical.bmp
140.13336587	1.8939390179999973	shape	0.619354963303	1.0	0.8	n/a	n/a	142.027304888	142.031004906	143.026214838	n/a	oval-horizontal.bmp	oval-vertical.bmp	oval-vertical.bmp
143.132637024	1.894055843000018	shape	0.720901966095	1.0	0.8	n/a	n/a	145.026692867	145.03027606	146.02610302	n/a	circle.bmp	circle.bmp	oval-vertical.bmp
146.135059834	1.8907780639999885	shape	0.820999860764	1.0	0.8	n/a	n/a	148.025837898	148.029819965	149.025651932	n/a	circle.bmp	oval-vertical.bmp	oval-vertical.bmp
149.132999897	1.892492056000009	shape	0.853546857834	1.0	0.8	n/a	n/a	151.025491953	151.029068947	152.025845051	n/a	oval-horizontal.bmp	circle.bmp	circle.bmp
152.13135004	1.8939487940000104	shape	0.672846078873	1.0	0.8	n/a	n/a	154.025298834	154.029108047	155.025353909	n/a	oval-horizontal.bmp	oval-horizontal.bmp	circle.bmp
158.101466894	1.9226529599999933	face	1.16691589355	1.0	0.8	155.109307051	158.024456978	160.024119854	160.028739929	161.023997068	n/a	20M_FE_O.jpg	21M_FE_O.jpg	21M_FE_O.jpg
161.181334972	1.8436129099999905	face	0.851273059845	1.0	0.8	n/a	n/a	163.024947882	163.028548956	164.023507833	n/a	01F_AN_O.jpg	07F_AN_O.jpg	07F_AN_O.jpg
164.151334047	1.8728058339999905	face	0.833009004593	1.0	0.8	n/a	n/a	166.024139881	166.027739048	167.023714066	n/a	FFX_139.jpg	FFZ_102.jpg	FFZ_102.jpg
167.171386957	1.852580070999977	face	0.637113809586	1.0	0.8	n/a	n/a	169.023967028	169.027580023	170.023083925	n/a	23M_AN_O.jpg	23M_AN_O.jpg	22M_AN_O.jpg
170.152293921	1.8718011370000056	face	0.682621955872	1.0	0.8	n/a	n/a	172.024095058	172.028068066	173.022904873	n/a	MAZ_146.jpg	MAZ_146.jpg	MAX_233.jpg
173.167921066	1.855333805000015	face	0.814059972763	1.0	0.8	n/a	n/a	175.023254871	175.026874065	176.022241831	n/a	15F_FE_O.jpg	15F_FE_O.jpg	16F_FE_O.jpg
179.058377981	1.9643568989999949	shape	0.902410984039	1.0	0.8	176.107885838	179.021692038	181.02273488	181.027312994	182.021826029	n/a	oval-horizontal.bmp	oval-vertical.bmp	oval-vertical.bmp
182.130437851	1.891091107999984	shape	0.73633813858	1.0	0.8	n/a	n/a	184.021528959	184.02523303	185.021272898	n/a	circle.bmp	oval-vertical.bmp	oval-vertical.bmp
185.129582882	1.892721176000009	shape	0.566960096359	1.0	0.8	n/a	n/a	187.022304058	187.025891066	188.021291018	n/a	oval-horizontal.bmp	oval-horizontal.bmp	oval-vertical.bmp
188.130422831	1.8907911769999828	shape	0.569032907486	1.0	0.8	n/a	n/a	190.021214008	190.024833918	191.020413876	n/a	oval-horizontal.bmp	oval-horizontal.bmp	circle.bmp
191.131901026	1.889499901999983	shape	0.681499004364	1.0	0.8	n/a	n/a	193.021400928	193.025034904	194.020252943	n/a	circle.bmp	circle.bmp	oval-vertical.bmp
194.129901886	1.889681101000008	shape	0.745017051697	1.0	0.8	n/a	n/a	196.019582987	196.023463011	197.020014048	n/a	oval-horizontal.bmp	circle.bmp	circle.bmp
200.080888033	1.9396078590000057	face	0.579404830933	1.0	0.8	197.110961914	200.0195539	202.020495892	202.025765896	203.020117998	n/a	FFX_54.jpg	FFX_54.jpg	FAX_51.jpg
203.162153959	1.8575749400000063	face	0.728778123856	1.0	0.8	n/a	n/a	205.019728899	205.023470879	206.019042015	n/a	40M_FE_O.BMP	41M_FE_O.jpg	41M_FE_O.jpg
206.166549921	1.8531560899999988	face	0.746789932251	1.0	0.8	n/a	n/a	208.019706011	208.023535013	209.018527031	n/a	29M_AN_O.jpg	29M_AN_O.jpg	28M_AN_O.jpg
209.151320934	1.86826491399998	face	0.694708824158	1.0	0.8	n/a	n/a	211.019585848	211.023881912	212.018343925	n/a	FFZ_18.jpg	FFZ_29.jpg	FFZ_29.jpg
212.177139044	1.8417239190000032	face	0.578090906143	1.0	0.8	n/a	n/a	214.018862963	214.022515059	215.017967939	n/a	19F_AN_O.jpg	19F_AN_O.jpg	09F_AN_O.jpg
215.148737907	1.869786978000008	face	0.724411964417	1.0	0.8	n/a	n/a	217.018524885	217.022202015	218.017833948	n/a	MFZ_132.jpg	MFZ_7.jpg	MFZ_7.jpg
221.055256844	1.963042019999989	shape	0.818830013275	1.0	0.8	218.108249903	221.01759696	223.018298864	223.022871971	224.017339945	n/a	circle.bmp	oval-vertical.bmp	oval-vertical.bmp
224.128746986	1.8887829779999947	shape	0.693891048431	1.0	0.8	n/a	n/a	226.017529964	226.021170855	227.016679049	n/a	oval-horizontal.bmp	oval-horizontal.bmp	circle.bmp
227.129291058	1.887990951000006	shape	0.993561983109	1.0	0.8	n/a	n/a	229.017282009	229.020951033	230.016340971	n/a	oval-horizontal.bmp	oval-vertical.bmp	oval-vertical.bmp
230.128480911	1.8987500670000088	shape	0.719204902649	1.0	0.8	n/a	n/a	232.027230978	232.031265974	233.016087055	n/a	oval-horizontal.bmp	circle.bmp	circle.bmp
233.131954908	1.878898143999976	shape	0.704097032547	1.0	0.8	n/a	n/a	235.010853052	235.014437914	236.010607958	n/a	oval-horizontal.bmp	oval-horizontal.bmp	oval-vertical.bmp
236.123170853	1.892719983999996	shape	0.737051010132	1.0	0.8	n/a	n/a	238.015890837	238.019785881	239.015321016	n/a	circle.bmp	circle.bmp	oval-vertical.bmp
242.095499992	1.932178975000028	face	1.08483195305	1.0	0.8	239.106160879	242.014947891	244.027678967	244.032579899	245.014773846	n/a	20M_FE_O.jpg	21M_FE_O.jpg	21M_FE_O.jpg
245.170376062	1.844918966999984	face	0.638064861298	1.0	0.8	n/a	n/a	247.015295029	247.018903971	248.014307022	n/a	07F_AN_O.jpg	07F_AN_O.jpg	01F_AN_O.jpg
248.145369053	1.8693299290000027	face	0.958294153214	1.0	0.8	n/a	n/a	250.014698982	250.018578053	251.01335001	n/a	FFZ_102.jpg	FFZ_102.jpg	FFX_139.jpg
251.164923906	1.8497250079999787	face	1.27368092537	1.0	0.8	n/a	n/a	253.014648914	253.018311024	254.013608932	n/a	22M_AN_O.jpg	23M_AN_O.jpg	23M_AN_O.jpg
254.145143986	1.8687748909999868	face	0.940151929855	1.0	0.8	n/a	n/a	256.013918877	256.017935038	257.013691902	n/a	MAX_233.jpg	MAZ_146.jpg	MAZ_146.jpg
257.165705919	1.8482580190000133	face	1.09125804901	1.0	0.8	n/a	n/a	259.013963938	259.017549038	260.012984991	n/a	15F_FE_O.jpg	15F_FE_O.jpg	16F_FE_O.jpg
263.050112963	1.9629340170000087	shape	0.940404891968	1.0	0.8	260.106555939	263.013258934	265.01304698	265.017971039	266.012380838	n/a	oval-horizontal.bmp	oval-horizontal.bmp	oval-vertical.bmp
266.125356913	1.8869509689999973	shape	0.753777980804	1.0	0.8	n/a	n/a	268.012307882	268.01632905	269.011945963	n/a	oval-horizontal.bmp	oval-vertical.bmp	oval-vertical.bmp
269.125025034	1.88762784000005	shape	1.02250003815	1.0	0.8	n/a	n/a	271.012652874	271.016253948	272.012079	n/a	circle.bmp	circle.bmp	oval-vertical.bmp
272.129701853	1.881430149000039	shape	0.805502176285	1.0	0.8	n/a	n/a	274.011132002	274.014788866	275.011385918	n/a	circle.bmp	oval-vertical.bmp	oval-vertical.bmp
275.127477884	1.8843350410000423	shape	0.754393100739	1.0	0.8	n/a	n/a	277.011812925	277.01561594	278.010959864	n/a	oval-horizontal.bmp	circle.bmp	circle.bmp
278.126256943	1.8845610619999889	shape	0.57200884819	1.0	0.8	n/a	n/a	280.010818005	280.014134884	281.010907888	n/a	oval-horizontal.bmp	oval-horizontal.bmp	circle.bmp
284.086160898	1.94187903400001	face	0.904032945633	1.0	0.8	281.103903055	284.02726388	286.028039932	286.032799959	287.026615858	n/a	FFZ_18.jpg	FAZ_129.jpg	FAZ_129.jpg
287.186534882	1.84042215300002	face	0.953194141388	1.0	0.8	n/a	n/a	289.026957035	289.030596972	290.02609396	n/a	20M_FE_O.jpg	24M_FE_O.jpg	24M_FE_O.jpg
290.163378	1.863071918999992	face	0.852885961533	1.0	0.8	n/a	n/a	292.026449919	292.030485868	293.025955915	n/a	FAZ_23.jpg	FAX_25.jpg	FAX_25.jpg
293.188037872	1.838438033999978	face	0.703098058701	1.0	0.8	n/a	n/a	295.026475906	295.030086994	296.025858879	n/a	33M_FE_O.jpg	33M_FE_O.jpg	35M_FE_O.jpg
296.19174099	1.835061072999963	face	0.702936887741	1.0	0.8	n/a	n/a	298.026802063	298.030573845	299.025188923	n/a	01F_AN_O.jpg	01F_AN_O.jpg	02F_AN_O.jpg
299.158412933	1.8668811320000032	face	0.786275148392	1.0	0.8	n/a	n/a	301.025294065	301.028909922	302.02460289	n/a	MFZ_132.jpg	MFZ_132.jpg	MFZ_120.jpg
305.061702967	1.963111877000017	shape	0.769742012024	1.0	0.8	302.121186972	305.024507999	307.024814844	307.02934289	308.024589062	n/a	oval-horizontal.bmp	oval-vertical.bmp	oval-vertical.bmp
308.1422019	1.88242602400004	shape	0.468384027481	1.0	0.8	n/a	n/a	310.024627924	310.028271914	311.024034977	n/a	circle.bmp	oval-vertical.bmp	oval-vertical.bmp
311.14059186	1.8840050700000008	shape	0.636808872223	1.0	0.8	n/a	n/a	313.02459693	313.02828598	314.023563862	n/a	oval-horizontal.bmp	oval-horizontal.bmp	oval-vertical.bmp
314.140931845	1.8825490469999977	shape	0.370271205902	1.0	0.8	n/a	n/a	316.023480892	316.02716589	317.023587942	n/a	oval-horizontal.bmp	oval-horizontal.bmp	circle.bmp
317.144151926	1.8794319630000016	shape	0.953290939331	1.0	0.8	n/a	n/a	319.023583889	319.027179956	320.022125959	n/a	circle.bmp	circle.bmp	oval-vertical.bmp
320.140365839	1.8835232259999657	shape	0.651062965393	1.0	0.8	n/a	n/a	322.023889065	322.027533054	323.023195982	n/a	oval-horizontal.bmp	circle.bmp	circle.bmp
326.108435869	1.915057182999988	face	1.15388298035	1.0	0.8	323.11984086	326.022445917	328.023493052	328.028118849	329.02185297	n/a	17F_FE_O.jpg	18F_FE_O.jpg	18F_FE_O.jpg
329.180871964	1.842061995999984	face	0.632191896439	1.0	0.8	n/a	n/a	331.02293396	331.026531935	332.021373034	n/a	42M_AN_O.jpg	43M_AN_O.jpg	43M_AN_O.jpg
332.184504986	1.837393999000028	face	0.66631603241	1.0	0.8	n/a	n/a	334.021898985	334.025441885	335.021275043	n/a	31M_FE_O.jpg	31M_FE_O.jpg	32M_FE_O.jpg
335.160578966	1.8615190979999736	face	0.802340984344	1.0	0.8	n/a	n/a	337.022098064	337.025780916	338.020678997	n/a	FAZ_212.jpg	FFZ_236.jpg	FFZ_236.jpg
338.184886932	1.835798979000004	face	0.73594212532	1.0	0.8	n/a	n/a	340.020685911	340.024636984	341.02055192	n/a	06F_FE_O.jpg	06F_FE_O.jpg	08F_FE_O.jpg
341.15760684	1.8634052279999764	face	0.820673942566	1.0	0.8	n/a	n/a	343.021012068	343.024651051	344.020398855	n/a	MAZ_128.jpg	MAZ_128.jpg	MAX_39.jpg
347.057194948	1.9627680780000103	shape	0.753156900406	1.0	0.8	344.118980885	347.019983053	349.019963026	349.024497032	350.019727945	n/a	circle.bmp	oval-vertical.bmp	oval-vertical.bmp
350.142959833	1.8763689999999544	shape	0.603945016861	1.0	0.8	n/a	n/a	352.019328833	352.023072004	353.020022869	n/a	oval-horizontal.bmp	oval-horizontal.bmp	circle.bmp
353.140082836	1.8795340060000283	shape	0.869491815567	1.0	0.8	n/a	n/a	355.019616842	355.023079872	356.018009901	n/a	oval-horizontal.bmp	oval-vertical.bmp	oval-vertical.bmp
356.139139891	1.879397154000003	shape	0.636328935623	1.0	0.8	n/a	n/a	358.018537045	358.02214694	359.018008947	n/a	oval-horizontal.bmp	circle.bmp	circle.bmp
359.132626057	1.8857109540000463	shape	0.63055896759	1.0	0.8	n/a	n/a	361.018337011	361.022239923	362.01807785	n/a	oval-horizontal.bmp	oval-horizontal.bmp	oval-vertical.bmp
362.130913973	1.8866250509999527	shape	0.596270084381	1.0	0.8	n/a	n/a	364.017539024	364.021728039	365.017653942	n/a	circle.bmp	circle.bmp	oval-vertical.bmp
368.072579861	1.9453320499999904	face	0.819287061691	1.0	0.8	365.113481998	368.016649961	370.017911911	370.022441864	371.017109871	n/a	FFZ_18.jpg	FAZ_129.jpg	FAZ_129.jpg
371.170424938	1.8475260740000288	face	1.06954693794	1.0	0.8	n/a	n/a	373.017951012	373.021538019	374.01628089	n/a	20M_FE_O.jpg	24M_FE_O.jpg	24M_FE_O.jpg
374.14903903	1.866880894000019	face	0.945692062378	1.0	0.8	n/a	n/a	376.015919924	376.019697905	377.016224861	n/a	FAZ_23.jpg	FAX_25.jpg	FAX_25.jpg
377.171028852	1.84545516999998	face	0.587476968765	1.0	0.8	n/a	n/a	379.016484022	379.020094872	380.015437841	n/a	33M_FE_O.jpg	33M_FE_O.jpg	35M_FE_O.jpg
380.177578926	1.8391671179999776	face	0.711686134338	1.0	0.8	n/a	n/a	382.016746044	382.020436049	383.015735865	n/a	01F_AN_O.jpg	01F_AN_O.jpg	02F_AN_O.jpg
383.14784503	1.8678619860000367	face	0.728003978729	1.0	0.8	n/a	n/a	385.015707016	385.019249916	386.015127897	394.414352894	MFZ_132.jpg	MFZ_132.jpg	MFZ_120.jpg
