onset	duration	trial_type	response_time	accuracy_binarized	tr_seconds	cueStartTime	cueEndTime	trialEndTime	fixStartTime	fixEndTime	runEndTime	stimLeft	stimTop	stimRight
11.0587830544	1.9690029621000007	shape	1.00370812416	1.0	0.8	8.02374505997	11.0110859871	13.0277860165	13.0324709415	14.0275211334	n/a	oval-horizontal.bmp	oval-horizontal.bmp	oval-vertical.bmp
14.1344089508	1.8923330307	shape	1.08419919014	1.0	0.8	n/a	n/a	16.0267419815	16.0304410458	17.026777029	n/a	oval-horizontal.bmp	oval-vertical.bmp	oval-vertical.bmp
17.1269631386	1.9000179766999992	shape	0.786396980286	1.0	0.8	n/a	n/a	19.0269811153	19.0303800106	20.0266890526	n/a	circle.bmp	circle.bmp	oval-vertical.bmp
20.127726078	1.8990340233000005	shape	0.73729300499	1.0	0.8	n/a	n/a	22.0267601013	22.0303659439	23.0259709358	n/a	circle.bmp	oval-vertical.bmp	oval-vertical.bmp
23.1258161068	1.9007499218000028	shape	0.854655981064	1.0	0.8	n/a	n/a	25.0265660286	25.0302019119	26.0255761147	n/a	oval-horizontal.bmp	circle.bmp	circle.bmp
26.1241531372	1.901660919200001	shape	0.753915071487	1.0	0.8	n/a	n/a	28.0258140564	28.0296781063	29.0248539448	n/a	oval-horizontal.bmp	oval-horizontal.bmp	circle.bmp
32.0894560814	1.9367549418999983	face	0.818907976151	1.0	0.8	29.0996870995	32.0241880417	34.0262110233	34.0306661129	35.0253889561	n/a	FAZ_23.jpg	FAZ_23.jpg	FAX_43.jpg
35.1683499813	1.856150150300003	face	0.965095043182	1.0	0.8	n/a	n/a	37.0245001316	37.0281050205	38.0247449875	n/a	26M_FE_O.jpg	26M_FE_O.jpg	27M_FE_O.BMP
38.1480300426	1.8766570092000023	face	0.986900091171	1.0	0.8	n/a	n/a	40.0246870518	40.0284130573	41.0243730545	n/a	MFX_16.jpg	MFZ_50.jpg	MFZ_50.jpg
41.1752090454	1.849493026699996	face	1.16928577423	1.0	0.8	n/a	n/a	43.0247020721	43.0282289982	44.022881031	n/a	09F_AN_O.jpg	09F_AN_O.jpg	10F_AN_O.jpg
44.1631901264	1.8609139918999984	face	1.13638114929	1.0	0.8	n/a	n/a	46.0241041183	46.0276799202	47.0235650539	n/a	38M_AN_O.BMP	39M_AN_O.jpg	39M_AN_O.jpg
47.1475720406	1.8762490749000025	face	1.16969013214	1.0	0.8	n/a	n/a	49.0238211155	49.0274260044	50.0229830742	n/a	FFZ_102.jpg	FFX_130.jpg	FFX_130.jpg
53.0606820583	1.9625139236999944	shape	0.703349113464	1.0	0.8	50.0985579491	53.0228309631	55.023195982	55.02769804	56.0222930908	n/a	oval-horizontal.bmp	oval-vertical.bmp	oval-vertical.bmp
56.1251010895	1.8974709510999967	shape	0.671398878098	1.0	0.8	n/a	n/a	58.0225720406	58.0263779163	59.0223860741	n/a	circle.bmp	oval-vertical.bmp	oval-vertical.bmp
59.124407053	1.8977839947	shape	0.872696876526	1.0	0.8	n/a	n/a	61.0221910477	61.0260169506	62.0216140747	n/a	oval-horizontal.bmp	oval-horizontal.bmp	oval-vertical.bmp
62.1251459122	1.8968501091000007	shape	0.569937944412	1.0	0.8	n/a	n/a	64.0219960213	64.0257620811	65.0225000381	n/a	oval-horizontal.bmp	oval-horizontal.bmp	circle.bmp
65.1293940544	1.892050027899998	shape	0.753833055496	1.0	0.8	n/a	n/a	67.0214440823	67.0251641273	68.0208559036	n/a	circle.bmp	circle.bmp	oval-vertical.bmp
68.1252701283	1.896260976699992	shape	0.786940813065	1.0	0.8	n/a	n/a	70.021531105	70.0255079269	71.0208311081	n/a	oval-horizontal.bmp	circle.bmp	circle.bmp
74.1061279774	1.91515111919999	face	0.95422911644	1.0	0.8	71.0964329243	74.0208559036	76.0212790966	76.0260961056	77.0201210976	n/a	03F_FE_O.jpg	05F_FE_O.jpg	05F_FE_O.jpg
77.1459209919	1.874217987099996	face	1.02775907516	1.0	0.8	n/a	n/a	79.020138979	79.0238409042	80.0200331211	n/a	FAZ_32.jpg	FAZ_32.jpg	FAX_45.jpg
80.1482079029	1.871829032899996	face	1.15342402458	1.0	0.8	n/a	n/a	82.0200369358	82.0235700607	83.0193741322	n/a	MAZ_128.jpg	MAZ_101.jpg	MAZ_101.jpg
83.1637489796	1.8557929992000053	face	1.07705593109	1.0	0.8	n/a	n/a	85.0195419788	85.0230810642	86.0190930367	n/a	11F_AN_O.jpg	11F_AN_O.jpg	12F_AN_O.jpg
86.1655189991	1.853764057199996	face	0.992745876312	1.0	0.8	n/a	n/a	88.0192830563	88.0232419968	89.0186469555	n/a	26M_FE_O.jpg	33M_FE_O.jpg	33M_FE_O.jpg
89.1445519924	1.8747999667999973	face	0.937077045441	1.0	0.8	n/a	n/a	91.0193519592	91.0227661133	92.0180740356	n/a	MFZ_132.jpg	MFZ_132.jpg	MFZ_120.jpg
95.066642046	1.9630980490999967	shape	0.653544902802	1.0	0.8	92.0992040634	95.0292270184	97.0297400951	97.0344660282	98.0291199684	n/a	circle.bmp	oval-vertical.bmp	oval-vertical.bmp
98.1350910664	1.894386052600012	shape	0.669186115265	1.0	0.8	n/a	n/a	100.029477119	100.033487082	101.017473936	n/a	oval-horizontal.bmp	oval-horizontal.bmp	circle.bmp
101.123064995	1.8942921160000024	shape	1.53786993027	1.0	0.8	n/a	n/a	103.017357111	103.020908117	104.016824007	n/a	oval-horizontal.bmp	oval-vertical.bmp	oval-vertical.bmp
104.122586966	1.894554138000004	shape	0.820747852325	1.0	0.8	n/a	n/a	106.017141104	106.020740986	107.016816139	n/a	oval-horizontal.bmp	circle.bmp	circle.bmp
107.123311043	1.8935189240000057	shape	1.05449295044	1.0	0.8	n/a	n/a	109.016829967	109.020501137	110.016856909	n/a	oval-horizontal.bmp	oval-horizontal.bmp	oval-vertical.bmp
110.128035069	1.8886320589999883	shape	0.758519172668	1.0	0.8	n/a	n/a	112.016667128	112.020777941	113.016087055	n/a	circle.bmp	circle.bmp	oval-vertical.bmp
116.071772099	1.9439728260000064	face	0.753792047501	1.0	0.8	113.096143961	116.015684128	118.015744925	118.020180941	119.015322924	n/a	FAZ_23.jpg	FAZ_23.jpg	FAX_43.jpg
119.150705099	1.863957881999994	face	0.789487838745	1.0	0.8	n/a	n/a	121.014662981	121.018317938	122.015166998	n/a	26M_FE_O.jpg	26M_FE_O.jpg	27M_FE_O.BMP
122.139256954	1.875725031000001	face	0.918215036392	1.0	0.8	n/a	n/a	124.014981985	124.019036055	125.014316082	n/a	MFZ_50.jpg	MFZ_50.jpg	MFX_16.jpg
125.165601969	1.849866152000004	face	1.03957509995	1.0	0.8	n/a	n/a	127.015468121	127.01901412	128.014570951	n/a	10F_AN_O.jpg	09F_AN_O.jpg	09F_AN_O.jpg
128.150977135	1.8811528679999867	face	0.802452087402	1.0	0.8	n/a	n/a	130.032130003	130.035540104	131.014235973	n/a	38M_AN_O.BMP	39M_AN_O.jpg	39M_AN_O.jpg
131.142192125	1.872526883999996	face	0.904870033264	1.0	0.8	n/a	n/a	133.014719009	133.018290997	134.01453805	n/a	FFZ_102.jpg	FFX_130.jpg	FFX_130.jpg
137.066990137	1.963700770999992	shape	0.904268026352	1.0	0.8	134.096085072	137.029761076	139.030690908	139.03522706	140.029246092	n/a	oval-horizontal.bmp	oval-horizontal.bmp	oval-vertical.bmp
140.137891054	1.89188385	shape	0.770300865173	1.0	0.8	n/a	n/a	142.029774904	142.033401966	143.029618979	n/a	oval-horizontal.bmp	oval-vertical.bmp	oval-vertical.bmp
143.135760069	1.894335030999997	shape	0.721441030502	1.0	0.8	n/a	n/a	145.0300951	145.033833027	146.029057026	n/a	circle.bmp	circle.bmp	oval-vertical.bmp
146.134419918	1.8946239950000177	shape	0.888153076172	1.0	0.8	n/a	n/a	148.029043913	148.033015966	149.028973103	n/a	circle.bmp	oval-vertical.bmp	oval-vertical.bmp
149.136580944	1.892184972999985	shape	0.771912097931	1.0	0.8	n/a	n/a	151.028765917	151.032392979	152.028017044	n/a	oval-horizontal.bmp	circle.bmp	circle.bmp
152.137887955	1.8904600140000127	shape	0.650899887085	1.0	0.8	n/a	n/a	154.028347969	154.031989098	155.028392076	n/a	oval-horizontal.bmp	oval-horizontal.bmp	circle.bmp
158.109072924	1.9200880519999828	face	1.38744997978	1.0	0.8	155.112298012	158.028213024	160.029160976	160.034079075	161.026838064	n/a	20M_FE_O.jpg	21M_FE_O.jpg	21M_FE_O.jpg
161.180263042	1.8472778799999787	face	0.716500997543	1.0	0.8	n/a	n/a	163.027540922	163.031103134	164.026602983	n/a	01F_AN_O.jpg	07F_AN_O.jpg	07F_AN_O.jpg
164.156399012	1.87179803799998	face	0.837427854538	1.0	0.8	n/a	n/a	166.02819705	166.031808138	167.026735067	n/a	FFX_139.jpg	FFZ_102.jpg	FFZ_102.jpg
167.176881075	1.8509979250000013	face	1.00282883644	1.0	0.8	n/a	n/a	169.027879	169.031491995	170.026576996	n/a	23M_AN_O.jpg	23M_AN_O.jpg	22M_AN_O.jpg
170.159006119	1.867249012000002	face	0.736479997635	1.0	0.8	n/a	n/a	172.026255131	172.029979944	173.02621913	n/a	MAZ_146.jpg	MAZ_146.jpg	MAX_233.jpg
173.175743103	1.8506379129999857	face	1.18713998795	1.0	0.8	n/a	n/a	175.026381016	175.029994965	176.025727034	n/a	15F_FE_O.jpg	15F_FE_O.jpg	16F_FE_O.jpg
179.062381983	1.963057995000014	shape	0.903774023056	1.0	0.8	176.110430956	179.025280952	181.025439978	181.030113935	182.024878025	n/a	oval-horizontal.bmp	oval-vertical.bmp	oval-vertical.bmp
182.138731956	1.8858540060000168	shape	0.769902944565	1.0	0.8	n/a	n/a	184.024585962	184.028239965	185.024725914	n/a	circle.bmp	oval-vertical.bmp	oval-vertical.bmp
185.136557102	1.8886089330000004	shape	0.952068090439	0.0	0.8	n/a	n/a	187.025166035	187.02885294	188.023771048	n/a	oval-horizontal.bmp	oval-horizontal.bmp	oval-vertical.bmp
188.13757205	1.8870129590000035	shape	0.737352132797	1.0	0.8	n/a	n/a	190.024585009	190.028202057	191.024173975	n/a	oval-horizontal.bmp	oval-horizontal.bmp	circle.bmp
191.142115116	1.882154942	shape	0.702515125275	1.0	0.8	n/a	n/a	193.024270058	193.027853966	194.023643017	n/a	circle.bmp	circle.bmp	oval-vertical.bmp
194.135776997	1.8883590690000176	shape	0.851332902908	1.0	0.8	n/a	n/a	196.024136066	196.027689934	197.02332592	n/a	oval-horizontal.bmp	circle.bmp	circle.bmp
200.084664106	1.939126015	face	0.714901208878	1.0	0.8	197.112565994	200.022516012	202.023790121	202.028358936	203.022866964	n/a	FFX_54.jpg	FFX_54.jpg	FAX_51.jpg
203.169399023	1.8542881009999803	face	0.753040075302	1.0	0.8	n/a	n/a	205.023687124	205.027307987	206.022421122	n/a	40M_FE_O.BMP	41M_FE_O.jpg	41M_FE_O.jpg
206.180498123	1.8410048490000008	face	0.820594072342	1.0	0.8	n/a	n/a	208.021502972	208.025111914	209.022303104	n/a	29M_AN_O.jpg	29M_AN_O.jpg	28M_AN_O.jpg
209.153216124	1.868997812000004	face	0.700894117355	1.0	0.8	n/a	n/a	211.022213936	211.025933027	212.02114296	n/a	FFZ_18.jpg	FFZ_29.jpg	FFZ_29.jpg
212.181380033	1.8409070969999848	face	1.03029298782	1.0	0.8	n/a	n/a	214.02228713	214.026082039	215.021862984	n/a	19F_AN_O.jpg	19F_AN_O.jpg	09F_AN_O.jpg
215.156924009	1.865039111000016	face	1.02079701424	1.0	0.8	n/a	n/a	217.02196312	217.025377989	218.020880938	n/a	MFZ_132.jpg	MFZ_7.jpg	MFZ_7.jpg
221.05805397	1.9636480810000023	shape	0.635704994202	1.0	0.8	218.114897013	221.020914078	223.021702051	223.026345968	224.019957066	n/a	circle.bmp	oval-vertical.bmp	oval-vertical.bmp
224.135390043	1.885535002000012	shape	0.666584014893	1.0	0.8	n/a	n/a	226.020925045	226.02470994	227.019518137	n/a	oval-horizontal.bmp	oval-horizontal.bmp	circle.bmp
227.133460999	1.886502981000007	shape	1.29583621025	1.0	0.8	n/a	n/a	229.01996398	229.023504019	230.020005941	n/a	oval-horizontal.bmp	oval-vertical.bmp	oval-vertical.bmp
230.135015965	1.8848371499999808	shape	0.861956119537	1.0	0.8	n/a	n/a	232.019853115	232.024300098	233.019438982	n/a	oval-horizontal.bmp	circle.bmp	circle.bmp
233.136578083	1.88303494500002	shape	1.05425405502	1.0	0.8	n/a	n/a	235.019613028	235.023258924	236.019405127	n/a	oval-horizontal.bmp	oval-horizontal.bmp	oval-vertical.bmp
236.138344049	1.8810138709999933	shape	0.683412075043	1.0	0.8	n/a	n/a	238.01935792	238.023139954	239.019042015	n/a	circle.bmp	circle.bmp	oval-vertical.bmp
242.096801996	1.9225440029999843	face	1.19475388527	1.0	0.8	239.109798908	242.018182993	244.019345999	244.024310112	245.018292904	n/a	20M_FE_O.jpg	21M_FE_O.jpg	21M_FE_O.jpg
245.175444126	1.8430697919999943	face	0.750622987747	1.0	0.8	n/a	n/a	247.018513918	247.022176027	248.017681122	n/a	07F_AN_O.jpg	07F_AN_O.jpg	01F_AN_O.jpg
248.149343967	1.8681540489999973	face	0.735500097275	1.0	0.8	n/a	n/a	250.017498016	250.021106005	251.017535925	n/a	FFZ_102.jpg	FFZ_102.jpg	FFX_139.jpg
251.176795006	1.850785970000004	face	0.820026874542	1.0	0.8	n/a	n/a	253.027580976	253.031211138	254.027056932	n/a	22M_AN_O.jpg	23M_AN_O.jpg	23M_AN_O.jpg
254.161214113	1.8664109710000216	face	0.668345928192	1.0	0.8	n/a	n/a	256.027625084	256.03156209	257.026874065	n/a	MAX_233.jpg	MAZ_146.jpg	MAZ_146.jpg
257.184329033	1.843291044000012	face	1.51999020576	1.0	0.8	n/a	n/a	259.027620077	259.03122592	260.026381016	n/a	15F_FE_O.jpg	15F_FE_O.jpg	16F_FE_O.jpg
263.054750919	1.962031126	shape	0.837385892868	1.0	0.8	260.118436098	263.015919924	265.016782045	265.021306992	266.015991926	n/a	oval-horizontal.bmp	oval-horizontal.bmp	oval-vertical.bmp
266.133116007	1.894032955	shape	0.853357076645	1.0	0.8	n/a	n/a	268.027148962	268.031301022	269.026866913	n/a	oval-horizontal.bmp	oval-vertical.bmp	oval-vertical.bmp
269.145136118	1.8819189069999995	shape	0.752887964249	1.0	0.8	n/a	n/a	271.027055025	271.030538082	272.01455307	n/a	circle.bmp	circle.bmp	oval-vertical.bmp
272.132638931	1.882917166000027	shape	0.642961978912	1.0	0.8	n/a	n/a	274.015556097	274.019143105	275.015017986	n/a	circle.bmp	oval-vertical.bmp	oval-vertical.bmp
275.134200096	1.880419970000048	shape	0.775385141373	1.0	0.8	n/a	n/a	277.014620066	277.018213034	278.014713049	n/a	oval-horizontal.bmp	circle.bmp	circle.bmp
278.135528088	1.8956580160000271	shape	0.836512088776	1.0	0.8	n/a	n/a	280.031186104	280.034768105	281.030802011	n/a	oval-horizontal.bmp	oval-horizontal.bmp	circle.bmp
284.091531038	1.923475026999995	face	0.739506959915	1.0	0.8	281.124624968	284.030262947	286.015006065	286.019479036	287.013651133	n/a	FFZ_18.jpg	FAZ_129.jpg	FAZ_129.jpg
287.174539089	1.855933904999972	face	1.05583810806	1.0	0.8	n/a	n/a	289.030472994	289.034006119	290.02965498	n/a	20M_FE_O.jpg	24M_FE_O.jpg	24M_FE_O.jpg
290.172373056	1.8579330449999816	face	0.823213100433	1.0	0.8	n/a	n/a	292.030306101	292.034299135	293.029237986	n/a	FAZ_23.jpg	FAX_25.jpg	FAX_25.jpg
293.191801071	1.8376109600000063	face	0.854849100113	1.0	0.8	n/a	n/a	295.029412031	295.032982111	296.029565096	n/a	33M_FE_O.jpg	33M_FE_O.jpg	35M_FE_O.jpg
296.193403959	1.8359210489999784	face	0.754909992218	1.0	0.8	n/a	n/a	298.029325008	298.032891989	299.02859807	n/a	01F_AN_O.jpg	01F_AN_O.jpg	02F_AN_O.jpg
299.169358969	1.860061168000016	face	0.719893932343	1.0	0.8	n/a	n/a	301.029420137	301.033122063	302.028124094	n/a	MFZ_132.jpg	MFZ_132.jpg	MFZ_120.jpg
305.064969063	1.963435888000049	shape	0.820486068726	1.0	0.8	302.124397039	305.028018951	307.028404951	307.032932043	308.027360916	n/a	oval-horizontal.bmp	oval-vertical.bmp	oval-vertical.bmp
308.145035982	1.882976054999972	shape	0.718497991562	1.0	0.8	n/a	n/a	310.028012037	310.031592131	311.02779603	n/a	circle.bmp	oval-vertical.bmp	oval-vertical.bmp
311.150231123	1.8771870139999576	shape	0.852120876312	1.0	0.8	n/a	n/a	313.027418137	313.031070948	314.026993036	n/a	oval-horizontal.bmp	oval-horizontal.bmp	oval-vertical.bmp
314.147135019	1.8799040319999565	shape	0.803120136261	1.0	0.8	n/a	n/a	316.027039051	316.03124094	317.02660203	n/a	oval-horizontal.bmp	oval-horizontal.bmp	circle.bmp
317.148968935	1.87788415	shape	0.9028840065	1.0	0.8	n/a	n/a	319.026853085	319.030437946	320.026346922	n/a	circle.bmp	circle.bmp	oval-vertical.bmp
320.15358305	1.872915029000012	shape	0.817532062531	1.0	0.8	n/a	n/a	322.026498079	322.030117035	323.025608063	n/a	oval-horizontal.bmp	circle.bmp	circle.bmp
326.110551119	1.9147570130000413	face	1.55194592476	1.0	0.8	323.123326063	326.026247978	328.025308132	328.030375957	329.024599075	n/a	17F_FE_O.jpg	18F_FE_O.jpg	18F_FE_O.jpg
329.192810059	1.8323500149999743	face	0.635957956314	1.0	0.8	n/a	n/a	331.025160074	331.028800011	332.024399042	n/a	42M_AN_O.jpg	43M_AN_O.jpg	43M_AN_O.jpg
332.186084032	1.8392460350000304	face	0.852928876877	1.0	0.8	n/a	n/a	334.025330067	334.028944016	335.024508953	n/a	31M_FE_O.jpg	31M_FE_O.jpg	32M_FE_O.jpg
335.170445919	1.8547191620000376	face	0.71991109848	1.0	0.8	n/a	n/a	337.025165081	337.028831959	338.024513006	n/a	FAZ_212.jpg	FFZ_236.jpg	FFZ_236.jpg
338.189465046	1.834779977999972	face	0.786745786667	1.0	0.8	n/a	n/a	340.024245024	340.028018951	341.024478912	n/a	06F_FE_O.jpg	06F_FE_O.jpg	08F_FE_O.jpg
341.166427135	1.858159780999984	face	0.752457141876	1.0	0.8	n/a	n/a	343.024586916	343.028237104	344.023529053	n/a	MAZ_128.jpg	MAZ_128.jpg	MAX_39.jpg
347.059973955	1.9636650090000105	shape	0.687283039093	1.0	0.8	344.122224092	347.02315712	349.023638964	349.028244972	350.022663116	n/a	circle.bmp	oval-vertical.bmp	oval-vertical.bmp
350.148646116	1.8739578729999948	shape	0.703549146652	1.0	0.8	n/a	n/a	352.022603989	352.026251078	353.022593021	n/a	oval-horizontal.bmp	oval-horizontal.bmp	circle.bmp
353.145534992	1.877114057999961	shape	0.820934057236	1.0	0.8	n/a	n/a	355.02264905	355.026098013	356.022709131	n/a	oval-horizontal.bmp	oval-vertical.bmp	oval-vertical.bmp
356.151087046	1.8714590069999983	shape	0.685348033905	1.0	0.8	n/a	n/a	358.022546053	358.026344061	359.022167921	n/a	oval-horizontal.bmp	circle.bmp	circle.bmp
359.145550966	1.876810074000048	shape	0.736366033554	1.0	0.8	n/a	n/a	361.02236104	361.025947094	362.021610975	n/a	oval-horizontal.bmp	oval-horizontal.bmp	oval-vertical.bmp
362.145564079	1.8764109609999764	shape	0.720646858215	1.0	0.8	n/a	n/a	364.02197504	364.025605917	365.021687984	n/a	circle.bmp	circle.bmp	oval-vertical.bmp
368.075446129	1.9457049370000163	face	0.685775995255	1.0	0.8	365.125703096	368.020719051	370.021151066	370.025665045	371.020653009	n/a	FFZ_18.jpg	FAZ_129.jpg	FAZ_129.jpg
371.186332941	1.834992170000021	face	0.819014787674	1.0	0.8	n/a	n/a	373.021325111	373.024891138	374.020287037	n/a	20M_FE_O.jpg	24M_FE_O.jpg	24M_FE_O.jpg
374.164102077	1.8568480019999924	face	0.916455984116	1.0	0.8	n/a	n/a	376.020950079	376.024584055	377.019877911	n/a	FAZ_23.jpg	FAX_25.jpg	FAX_25.jpg
377.185667038	1.8345770839999889	face	0.986397027969	1.0	0.8	n/a	n/a	379.020244122	379.023653984	380.019850016	n/a	33M_FE_O.jpg	33M_FE_O.jpg	35M_FE_O.jpg
380.19194293	1.828042030999996	face	0.785878181458	1.0	0.8	n/a	n/a	382.019984961	382.023697138	383.019212008	n/a	01F_AN_O.jpg	01F_AN_O.jpg	02F_AN_O.jpg
383.167576075	1.852193832000012	face	0.685276031494	1.0	0.8	n/a	n/a	385.019769907	385.023530006	386.019561052	394.417966127	MFZ_132.jpg	MFZ_132.jpg	MFZ_120.jpg
