onset	duration	trial_type	response_time	accuracy_binarized	tr_seconds	cueStartTime	cueEndTime	trialEndTime	fixStartTime	fixEndTime	runEndTime	stimLeft	stimTop	stimRight
11.0518009663	1.968683958	shape	1.26221704483	0.0	0.8	8.0153169632	11.0043540001	13.0204849243	13.0250220299	14.0195069313	n/a	oval-horizontal.bmp	oval-horizontal.bmp	oval-vertical.bmp
14.1315641403	1.8884298802000004	shape	0.711774110794	1.0	0.8	n/a	n/a	16.0199940205	16.0239150524	17.0190739632	n/a	oval-horizontal.bmp	oval-vertical.bmp	oval-vertical.bmp
17.1223409176	1.8973031044000024	shape	0.720283031464	1.0	0.8	n/a	n/a	19.019644022	19.0232589245	20.019755125	n/a	circle.bmp	circle.bmp	oval-vertical.bmp
20.1203820705	1.8990168572	shape	0.561714172363	1.0	0.8	n/a	n/a	22.0193989277	22.0231039524	23.0185360909	n/a	circle.bmp	oval-vertical.bmp	oval-vertical.bmp
23.119535923	1.8990941048	shape	0.494005918503	1.0	0.8	n/a	n/a	25.0186300278	25.0225820541	26.0183660984	n/a	oval-horizontal.bmp	circle.bmp	circle.bmp
26.1162610054	1.9118599892	shape	0.635817050934	1.0	0.8	n/a	n/a	28.0281209946	28.0323569775	29.0177419186	n/a	oval-horizontal.bmp	oval-horizontal.bmp	circle.bmp
32.0767741203	1.9521248340999973	face	0.719501972198	1.0	0.8	29.0919539928	32.0175380707	34.0288989544	34.0333819389	35.0282320976	n/a	FAZ_23.jpg	FAZ_23.jpg	FAX_43.jpg
35.1717021465	1.845928907399994	face	0.600316047668	1.0	0.8	n/a	n/a	37.0176310539	37.0213580132	38.0166730881	n/a	26M_FE_O.jpg	26M_FE_O.jpg	27M_FE_O.BMP
38.1395640373	1.8775088786999987	face	0.518851995468	1.0	0.8	n/a	n/a	40.017072916	40.021146059	41.0166721344	n/a	MFX_16.jpg	MFZ_50.jpg	MFZ_50.jpg
41.1631059647	1.8658571243	face	0.519483089447	1.0	0.8	n/a	n/a	43.028963089	43.032597065	44.0275261402	n/a	09F_AN_O.jpg	09F_AN_O.jpg	10F_AN_O.jpg
44.1601381302	1.8684868812000064	face	0.503489017487	1.0	0.8	n/a	n/a	46.0286250114	46.0322599411	47.015789032	n/a	38M_AN_O.BMP	39M_AN_O.jpg	39M_AN_O.jpg
47.1359119415	1.8802270890000017	face	0.642339944839	1.0	0.8	n/a	n/a	49.0161390305	49.0197660923	50.0155720711	n/a	FFZ_102.jpg	FFX_130.jpg	FFX_130.jpg
53.0523309708	1.9638061523000017	shape	0.790217161179	1.0	0.8	50.0936040878	53.0152261257	55.0161371231	55.0205709934	56.0146710873	n/a	oval-horizontal.bmp	oval-vertical.bmp	oval-vertical.bmp
56.1156070232	1.8997690678000008	shape	0.456653118134	1.0	0.8	n/a	n/a	58.015376091	58.0190529823	59.0153069496	n/a	circle.bmp	oval-vertical.bmp	oval-vertical.bmp
59.1158850193	1.915503978699995	shape	0.490830183029	0.0	0.8	n/a	n/a	61.031388998	61.0350129604	62.0143420696	n/a	oval-horizontal.bmp	oval-horizontal.bmp	oval-vertical.bmp
62.1164839268	1.9150941372000003	shape	0.756448030472	1.0	0.8	n/a	n/a	64.031578064	64.0355629921	65.030408144	n/a	oval-horizontal.bmp	oval-horizontal.bmp	circle.bmp
65.1327941418	1.8977408408999992	shape	0.556016921997	1.0	0.8	n/a	n/a	67.0305349827	67.034099102	68.0301790237	n/a	circle.bmp	circle.bmp	oval-vertical.bmp
68.1313359737	1.8997230530000024	shape	0.688815832138	1.0	0.8	n/a	n/a	70.0310590267	70.0348680019	71.029966116	n/a	oval-horizontal.bmp	circle.bmp	circle.bmp
74.1108250618	1.919144868800004	face	1.02176880836	1.0	0.8	71.1065700054	74.029804945	76.0299699306	76.0348880291	77.029129982	n/a	03F_FE_O.jpg	05F_FE_O.jpg	05F_FE_O.jpg
77.1529641151	1.8769190311999893	face	0.653283834457	1.0	0.8	n/a	n/a	79.0298831463	79.0334770679	80.0288751125	n/a	FAZ_32.jpg	FAZ_32.jpg	FAX_45.jpg
80.1482789516	1.8809671401999992	face	0.722253799438	1.0	0.8	n/a	n/a	82.0292460918	82.0328960419	83.0285160542	n/a	MAZ_128.jpg	MAZ_101.jpg	MAZ_101.jpg
83.1675341129	1.861582994499997	face	0.63819694519	1.0	0.8	n/a	n/a	85.0291171074	85.0329771042	86.0286641121	n/a	11F_AN_O.jpg	11F_AN_O.jpg	12F_AN_O.jpg
86.1703050137	1.8581030368000029	face	0.602264881134	1.0	0.8	n/a	n/a	88.0284080505	88.032449007	89.02779603	n/a	26M_FE_O.jpg	33M_FE_O.jpg	33M_FE_O.jpg
89.1501960754	1.878175020299992	face	0.737668037415	1.0	0.8	n/a	n/a	91.0283710957	91.0319759846	92.0272099972	n/a	MFZ_132.jpg	MFZ_132.jpg	MFZ_120.jpg
95.0642590523	1.9632689952999984	shape	0.736078977585	1.0	0.8	92.1072580814	95.0272259712	97.0275280476	97.0321340561	98.027215004	n/a	circle.bmp	oval-vertical.bmp	oval-vertical.bmp
98.1300230026	1.897659063399999	shape	0.703711986542	1.0	0.8	n/a	n/a	100.027682066	100.031813145	101.027102947	n/a	oval-horizontal.bmp	oval-horizontal.bmp	circle.bmp
101.129714012	1.8969690800000047	shape	0.88583111763	1.0	0.8	n/a	n/a	103.026683092	103.030254126	104.026711941	n/a	oval-horizontal.bmp	oval-vertical.bmp	oval-vertical.bmp
104.128730059	1.8975770469999984	shape	0.552800893784	1.0	0.8	n/a	n/a	106.026307106	106.029901981	107.025676966	n/a	oval-horizontal.bmp	circle.bmp	circle.bmp
107.132332087	1.893759965000001	shape	0.570086956024	1.0	0.8	n/a	n/a	109.026092052	109.029642105	110.025540113	n/a	oval-horizontal.bmp	oval-horizontal.bmp	oval-vertical.bmp
110.129861116	1.895821810000001	shape	0.686666965485	1.0	0.8	n/a	n/a	112.025682926	112.029369116	113.024771929	n/a	circle.bmp	circle.bmp	oval-vertical.bmp
116.081385136	1.944185972	face	0.721725940704	1.0	0.8	113.107308149	116.024105072	118.025571108	118.030091047	119.024492979	n/a	FAZ_23.jpg	FAZ_23.jpg	FAX_43.jpg
119.157398939	1.8680751329999907	face	0.685570955276	1.0	0.8	n/a	n/a	121.025474072	121.029163122	122.024251938	n/a	26M_FE_O.jpg	26M_FE_O.jpg	27M_FE_O.BMP
122.144931078	1.8790519239999952	face	0.653048992157	1.0	0.8	n/a	n/a	124.023983002	124.027756929	125.023775101	n/a	MFZ_50.jpg	MFZ_50.jpg	MFX_16.jpg
125.17511797	1.849066018999992	face	0.869772911072	1.0	0.8	n/a	n/a	127.024183989	127.028139114	128.023402929	n/a	10F_AN_O.jpg	09F_AN_O.jpg	09F_AN_O.jpg
128.15458107	1.8700020309999843	face	0.91926908493	1.0	0.8	n/a	n/a	130.024583101	130.028223991	131.023342133	n/a	38M_AN_O.BMP	39M_AN_O.jpg	39M_AN_O.jpg
131.145713091	1.8778409960000035	face	0.702456951141	1.0	0.8	n/a	n/a	133.023554087	133.027157068	134.023272991	n/a	FFZ_102.jpg	FFX_130.jpg	FFX_130.jpg
137.05974102	1.963321924000013	shape	0.670226097107	0.0	0.8	134.106549978	137.022536039	139.023062944	139.027555943	140.022408009	n/a	oval-horizontal.bmp	oval-horizontal.bmp	oval-vertical.bmp
140.127949953	1.8945381639999823	shape	0.553614854813	1.0	0.8	n/a	n/a	142.022488117	142.026081085	143.021790028	n/a	oval-horizontal.bmp	oval-vertical.bmp	oval-vertical.bmp
143.131032944	1.8915500640000005	shape	0.964888811111	1.0	0.8	n/a	n/a	145.022583008	145.026175022	146.021590948	n/a	circle.bmp	circle.bmp	oval-vertical.bmp
146.129411936	1.8916611669999952	shape	0.85307097435	1.0	0.8	n/a	n/a	148.021073103	148.02509594	149.021167994	n/a	circle.bmp	oval-vertical.bmp	oval-vertical.bmp
149.130402088	1.891310930000003	shape	0.695275068283	1.0	0.8	n/a	n/a	151.021713018	151.02532506	152.020405054	n/a	oval-horizontal.bmp	circle.bmp	circle.bmp
152.129785061	1.8916840549999847	shape	0.653317928314	1.0	0.8	n/a	n/a	154.021469116	154.025030136	155.02088809	n/a	oval-horizontal.bmp	oval-horizontal.bmp	circle.bmp
158.099097013	1.9213509559999973	face	1.39700007439	1.0	0.8	155.104192019	158.020426035	160.020447969	160.025424957	161.019652128	n/a	20M_FE_O.jpg	21M_FE_O.jpg	21M_FE_O.jpg
161.169723988	1.8503861420000192	face	0.816411018372	1.0	0.8	n/a	n/a	163.02011013	163.023707151	164.019396067	n/a	01F_AN_O.jpg	07F_AN_O.jpg	07F_AN_O.jpg
164.148576021	1.8719809060000048	face	0.63122010231	1.0	0.8	n/a	n/a	166.020556927	166.024394035	167.019160986	n/a	FFX_139.jpg	FFZ_102.jpg	FFZ_102.jpg
167.169160128	1.8507738110000105	face	0.919972896576	1.0	0.8	n/a	n/a	169.019933939	169.023428917	170.018759966	n/a	23M_AN_O.jpg	23M_AN_O.jpg	22M_AN_O.jpg
170.143224001	1.876277923999993	face	0.537034034729	1.0	0.8	n/a	n/a	172.019501925	172.023529053	173.018326998	n/a	MAZ_146.jpg	MAZ_146.jpg	MAX_233.jpg
173.166065931	1.8523402220000087	face	0.713478088379	1.0	0.8	n/a	n/a	175.018406153	175.022098064	176.018584967	n/a	15F_FE_O.jpg	15F_FE_O.jpg	16F_FE_O.jpg
179.0540061	1.964391945999978	shape	0.77082490921	1.0	0.8	176.10610199	179.017960072	181.018398046	181.023211956	182.0174191	n/a	oval-horizontal.bmp	oval-vertical.bmp	oval-vertical.bmp
182.125029087	1.8925330639999915	shape	0.584265947342	1.0	0.8	n/a	n/a	184.017562151	184.021377087	185.017085075	n/a	circle.bmp	oval-vertical.bmp	oval-vertical.bmp
185.126498938	1.891205071999991	shape	0.769947052002	1.0	0.8	n/a	n/a	187.01770401	187.021197081	188.016883135	n/a	oval-horizontal.bmp	oval-horizontal.bmp	oval-vertical.bmp
188.127722025	1.889101982	shape	0.726768016815	1.0	0.8	n/a	n/a	190.016824007	190.020439148	191.01633811	n/a	oval-horizontal.bmp	oval-horizontal.bmp	circle.bmp
191.125702143	1.8912668229999952	shape	0.702991008759	1.0	0.8	n/a	n/a	193.016968966	193.020681143	194.016125917	n/a	circle.bmp	circle.bmp	oval-vertical.bmp
194.127808094	1.888162851000004	shape	0.661068916321	1.0	0.8	n/a	n/a	196.015970945	196.02015996	197.015825033	n/a	oval-horizontal.bmp	circle.bmp	circle.bmp
200.077394962	1.949371100000008	face	0.586225032806	1.0	0.8	197.106811047	200.015372992	202.026766062	202.031405926	203.025836945	n/a	FFX_54.jpg	FFX_54.jpg	FAX_51.jpg
203.175127983	1.8514189719999763	face	0.653203010559	1.0	0.8	n/a	n/a	205.026546955	205.030198097	206.02569294	n/a	40M_FE_O.BMP	41M_FE_O.jpg	41M_FE_O.jpg
206.17374301	1.8412399289999823	face	0.55305981636	1.0	0.8	n/a	n/a	208.014982939	208.018979073	209.014526129	n/a	29M_AN_O.jpg	29M_AN_O.jpg	28M_AN_O.jpg
209.14094615	1.8856749530000056	face	0.537046909332	1.0	0.8	n/a	n/a	211.026621103	211.030287027	212.025356054	n/a	FFZ_18.jpg	FFZ_29.jpg	FFZ_29.jpg
212.183200121	1.8433589930000096	face	0.637203931808	1.0	0.8	n/a	n/a	214.026559114	214.030206919	215.025598049	n/a	19F_AN_O.jpg	19F_AN_O.jpg	09F_AN_O.jpg
215.152765036	1.8780019280000035	face	0.653451919556	1.0	0.8	n/a	n/a	217.030766964	217.03449297	218.029992104	n/a	MFZ_132.jpg	MFZ_7.jpg	MFZ_7.jpg
221.066895962	1.96346902800002	shape	0.724447965622	1.0	0.8	218.118925095	221.030415058	223.03036499	223.034719944	224.029374123	n/a	circle.bmp	oval-vertical.bmp	oval-vertical.bmp
224.146225929	1.883958102000008	shape	0.674411058426	0.0	0.8	n/a	n/a	226.030184031	226.033826113	227.029107094	n/a	oval-horizontal.bmp	oval-horizontal.bmp	circle.bmp
227.141165972	1.888553141999978	shape	0.473107814789	1.0	0.8	n/a	n/a	229.029719114	229.033522129	230.028718948	n/a	oval-horizontal.bmp	oval-vertical.bmp	oval-vertical.bmp
230.140304089	1.8886840339999933	shape	0.690360069275	1.0	0.8	n/a	n/a	232.028988123	232.033069134	233.028211117	n/a	oval-horizontal.bmp	circle.bmp	circle.bmp
233.139387131	1.8899879450000008	shape	0.674787998199	1.0	0.8	n/a	n/a	235.029375076	235.033018112	236.028203964	n/a	oval-horizontal.bmp	oval-horizontal.bmp	oval-vertical.bmp
236.141670942	1.8860690600000112	shape	0.606621980667	1.0	0.8	n/a	n/a	238.027740002	238.031319141	239.027920008	n/a	circle.bmp	circle.bmp	oval-vertical.bmp
242.107988119	1.91988182099999	face	0.638931035995	1.0	0.8	239.117561102	242.027308941	244.02786994	244.032755136	245.027081966	n/a	20M_FE_O.jpg	21M_FE_O.jpg	21M_FE_O.jpg
245.181045055	1.846533060000013	face	0.621955871582	1.0	0.8	n/a	n/a	247.027578115	247.030995131	248.027059078	n/a	07F_AN_O.jpg	07F_AN_O.jpg	01F_AN_O.jpg
248.156774998	1.870486973999988	face	0.655887842178	1.0	0.8	n/a	n/a	250.027261972	250.030838966	251.026624918	n/a	FFZ_102.jpg	FFZ_102.jpg	FFX_139.jpg
251.181396008	1.8453221320000068	face	0.655318975449	1.0	0.8	n/a	n/a	253.02671814	253.030177116	254.026051998	n/a	22M_AN_O.jpg	23M_AN_O.jpg	23M_AN_O.jpg
254.154396057	1.871968030999966	face	0.503945112228	1.0	0.8	n/a	n/a	256.026364088	256.03059411	257.025861979	n/a	MAX_233.jpg	MAZ_146.jpg	MAZ_146.jpg
257.17979598	1.8469140529999777	face	0.654090881348	1.0	0.8	n/a	n/a	259.026710033	259.030278921	260.025336027	n/a	15F_FE_O.jpg	15F_FE_O.jpg	16F_FE_O.jpg
263.061034918	1.964219092999997	shape	1.23627591133	1.0	0.8	260.11985302	263.024912119	265.025254011	265.029812098	266.024820089	n/a	oval-horizontal.bmp	oval-horizontal.bmp	oval-vertical.bmp
266.138916969	1.8857710359999944	shape	0.602354049683	1.0	0.8	n/a	n/a	268.024688005	268.028366089	269.024759054	n/a	oval-horizontal.bmp	oval-vertical.bmp	oval-vertical.bmp
269.138821125	1.8865368369999944	shape	0.504065990448	1.0	0.8	n/a	n/a	271.025357962	271.029084921	272.02383399	n/a	circle.bmp	circle.bmp	oval-vertical.bmp
272.140012026	1.883856057999992	shape	0.584078788757	1.0	0.8	n/a	n/a	274.023868084	274.02751708	275.02344203	n/a	circle.bmp	oval-vertical.bmp	oval-vertical.bmp
275.138590097	1.88526892699997	shape	0.553611040115	1.0	0.8	n/a	n/a	277.023859024	277.027456999	278.023355961	n/a	oval-horizontal.bmp	circle.bmp	circle.bmp
278.139112949	1.8846349720000148	shape	0.735860109329	1.0	0.8	n/a	n/a	280.023747921	280.027755976	281.023153067	n/a	oval-horizontal.bmp	oval-horizontal.bmp	circle.bmp
284.084764957	1.9389500620000035	face	0.586606025696	1.0	0.8	281.117211103	284.022865057	286.023715019	286.028202057	287.022418976	n/a	FFZ_18.jpg	FAZ_129.jpg	FAZ_129.jpg
287.181705952	1.841315030999965	face	1.31812500954	1.0	0.8	n/a	n/a	289.023020983	289.026612997	290.022005081	n/a	20M_FE_O.jpg	24M_FE_O.jpg	24M_FE_O.jpg
290.15674901	1.866148948999978	face	0.852723121643	1.0	0.8	n/a	n/a	292.022897959	292.026562929	293.021810055	n/a	FAZ_23.jpg	FAX_25.jpg	FAX_25.jpg
293.177879095	1.8441469670000288	face	0.554875135422	1.0	0.8	n/a	n/a	295.022026062	295.025646925	296.021965981	n/a	33M_FE_O.jpg	33M_FE_O.jpg	35M_FE_O.jpg
296.184494972	1.8374330999999984	face	0.620002031326	1.0	0.8	n/a	n/a	298.021928072	298.025511026	299.021037102	n/a	01F_AN_O.jpg	01F_AN_O.jpg	02F_AN_O.jpg
299.15200901	1.8696510790000505	face	0.753530979156	1.0	0.8	n/a	n/a	301.021660089	301.025324106	302.02098012	n/a	MFZ_132.jpg	MFZ_132.jpg	MFZ_120.jpg
305.056847095	1.9643969539999944	shape	0.635771989822	1.0	0.8	302.116910934	305.020252943	307.021244049	307.025690079	308.024944067	n/a	oval-horizontal.bmp	oval-vertical.bmp	oval-vertical.bmp
308.143450022	1.8767640589999808	shape	0.503452062607	1.0	0.8	n/a	n/a	310.020214081	310.023962021	311.019297123	n/a	circle.bmp	oval-vertical.bmp	oval-vertical.bmp
311.136670113	1.883145809000041	shape	0.699987888336	1.0	0.8	n/a	n/a	313.019815922	313.023425102	314.019329071	n/a	oval-horizontal.bmp	oval-horizontal.bmp	oval-vertical.bmp
314.13608408	1.883791922999989	shape	0.5871489048	1.0	0.8	n/a	n/a	316.019876003	316.023834944	317.019248962	n/a	oval-horizontal.bmp	oval-horizontal.bmp	circle.bmp
317.139079094	1.879840850999983	shape	0.602156877518	1.0	0.8	n/a	n/a	319.018919945	319.022511005	320.017853022	n/a	circle.bmp	circle.bmp	oval-vertical.bmp
320.13641715	1.8828909399999816	shape	0.586519002914	1.0	0.8	n/a	n/a	322.01930809	322.023020029	323.018312931	n/a	oval-horizontal.bmp	circle.bmp	circle.bmp
326.098437071	1.9197769160000464	face	1.00324702263	1.0	0.8	323.114043951	326.018571138	328.018213987	328.023494005	329.017642021	n/a	17F_FE_O.jpg	18F_FE_O.jpg	18F_FE_O.jpg
329.179389	1.8388259409999816	face	0.680043935776	1.0	0.8	n/a	n/a	331.018214941	331.021834135	332.01738596	n/a	42M_AN_O.jpg	43M_AN_O.jpg	43M_AN_O.jpg
332.180012941	1.837500096000042	face	0.663670063019	1.0	0.8	n/a	n/a	334.017513037	334.02115798	335.017137051	n/a	31M_FE_O.jpg	31M_FE_O.jpg	32M_FE_O.jpg
335.158906937	1.8587450980000424	face	0.786721944809	1.0	0.8	n/a	n/a	337.017652035	337.021423101	338.016637087	n/a	FAZ_212.jpg	FFZ_236.jpg	FFZ_236.jpg
338.181105137	1.8359839910000344	face	0.662877082825	1.0	0.8	n/a	n/a	340.017089128	340.02114296	341.016526937	n/a	06F_FE_O.jpg	06F_FE_O.jpg	08F_FE_O.jpg
341.157160044	1.8595628740000048	face	0.587046146393	1.0	0.8	n/a	n/a	343.016722918	343.020350933	344.015859127	n/a	MAZ_128.jpg	MAZ_128.jpg	MAX_39.jpg
347.054737091	1.9612610340000167	shape	1.26791381836	1.0	0.8	344.114395142	347.015829086	349.015998125	349.020633936	350.015377998	n/a	circle.bmp	oval-vertical.bmp	oval-vertical.bmp
350.136673927	1.879178046999982	shape	0.953963041306	1.0	0.8	n/a	n/a	352.015851974	352.019999027	353.015197992	n/a	oval-horizontal.bmp	oval-horizontal.bmp	circle.bmp
353.134540081	1.8808829779999885	shape	0.503885030746	1.0	0.8	n/a	n/a	355.015423059	355.019032955	356.015030146	n/a	oval-horizontal.bmp	oval-vertical.bmp	oval-vertical.bmp
356.138927937	1.876329182999996	shape	0.487173080444	1.0	0.8	n/a	n/a	358.01525712	358.018917084	359.014290094	n/a	oval-horizontal.bmp	circle.bmp	circle.bmp
359.136008024	1.8954539300000304	shape	0.586395978928	0.0	0.8	n/a	n/a	361.031461954	361.035071135	362.03126502	n/a	oval-horizontal.bmp	oval-horizontal.bmp	oval-vertical.bmp
362.150738955	1.8803479669999767	shape	0.869045972824	1.0	0.8	n/a	n/a	364.031086922	364.034702063	365.030282021	n/a	circle.bmp	circle.bmp	oval-vertical.bmp
368.084249973	1.9464559560000223	face	0.570641994476	1.0	0.8	365.128540993	368.029644012	370.030705929	370.035264969	371.030225992	n/a	FFZ_18.jpg	FAZ_129.jpg	FAZ_129.jpg
371.190433979	1.8339791300000456	face	1.0865881443	1.0	0.8	n/a	n/a	373.024413109	373.028036118	374.023443937	n/a	20M_FE_O.jpg	24M_FE_O.jpg	24M_FE_O.jpg
374.160507917	1.8635301589999929	face	0.602994918823	1.0	0.8	n/a	n/a	376.024038076	376.028129101	377.023551941	n/a	FAZ_23.jpg	FAX_25.jpg	FAX_25.jpg
377.186821938	1.842622995	face	0.570434093475	1.0	0.8	n/a	n/a	379.029444933	379.033048153	380.02866292	n/a	33M_FE_O.jpg	33M_FE_O.jpg	35M_FE_O.jpg
380.190222979	1.83393311499998	face	0.503280878067	1.0	0.8	n/a	n/a	382.024156094	382.027719975	383.02325201	n/a	01F_AN_O.jpg	01F_AN_O.jpg	02F_AN_O.jpg
383.164914131	1.8643858430000364	face	0.504021883011	1.0	0.8	n/a	n/a	385.029299974	385.03291297	386.02859807	394.426892042	MFZ_132.jpg	MFZ_132.jpg	MFZ_120.jpg
