onset	duration	trial_type	response_time	accuracy_binarized	tr_seconds	cueStartTime	cueEndTime	trialEndTime	fixStartTime	fixEndTime	runEndTime	stimLeft	stimTop	stimRight
11.128262996673584	1.9347350597381592	shape	0.833821058273	1.0	0.8	8.067409992218018	11.06204605102539	13.062998056411743	13.09498405456543	14.095502138137816	n/a	oval-horizontal.bmp	oval-horizontal.bmp	oval-vertical.bmp
14.194992065429688	1.9011900424957275	shape	1.10087585449	1.0	0.8	n/a	n/a	16.096182107925415	16.128262996673584	17.095540046691895	n/a	oval-horizontal.bmp	oval-vertical.bmp	oval-vertical.bmp
17.195028066635132	1.9011800289154053	shape	0.733991861343	1.0	0.8	n/a	n/a	19.096208095550537	19.128231048583984	20.09529399871826	n/a	circle.bmp	circle.bmp	oval-vertical.bmp
20.17821907997132	1.9011421203613248	shape	0.633855104446	1.0	0.8	n/a	n/a	22.07936120033264	22.11177897453308	23.0787320137024	n/a	circle.bmp	oval-vertical.bmp	oval-vertical.bmp
23.178404092788696	1.901242017745972	shape	0.734102964401	1.0	0.8	n/a	n/a	25.079646110534668	25.111632108688354	26.07888603210449	n/a	oval-horizontal.bmp	circle.bmp	circle.bmp
26.17841410636902	1.900690078735352	shape	0.767511129379	1.0	0.8	n/a	n/a	28.07910418510437	28.11175107955933	29.07891702651977	n/a	oval-horizontal.bmp	oval-horizontal.bmp	circle.bmp
32.1620659828186	1.936187982559204	face	0.733386039734	1.0	0.8	29.139297008514404	32.09772706031799	34.09825396537781	34.128756046295166	35.09861397743225	n/a	FAZ_23.jpg	FAZ_23.jpg	FAX_43.jpg
35.228981018066406	1.8690860271453853	face	0.765783786774	1.0	0.8	n/a	n/a	37.09806704521179	37.12877416610718	38.098512172698975	n/a	26M_FE_O.jpg	26M_FE_O.jpg	27M_FE_O.BMP
38.21255803108215	1.8684101104736328	face	0.699242115021	1.0	0.8	n/a	n/a	40.080968141555786	40.1120719909668	41.085055112838745	n/a	MFX_16.jpg	MFZ_50.jpg	MFZ_50.jpg
41.229063987731934	1.8689820766448968	face	0.866193056107	1.0	0.8	n/a	n/a	43.09804606437683	43.12884211540222	44.09851408004761	n/a	09F_AN_O.jpg	09F_AN_O.jpg	10F_AN_O.jpg
44.228984117507935	1.86912202835083	face	0.665923118591	1.0	0.8	n/a	n/a	46.098106145858765	46.12885999679565	47.09858798980713	n/a	38M_AN_O.BMP	39M_AN_O.jpg	39M_AN_O.jpg
47.21252799034119	1.872706174850464	face	0.699326038361	1.0	0.8	n/a	n/a	49.08523416519165	49.11209797859192	50.08524918556213	n/a	FFZ_102.jpg	FFX_130.jpg	FFX_130.jpg
53.14574408531189	1.937305927276612	shape	1.03393411636	1.0	0.8	50.13960313796997	53.09793996810913	55.0830500125885	55.11215901374817	56.08192205429077	n/a	oval-horizontal.bmp	oval-vertical.bmp	oval-vertical.bmp
56.16223812103272	1.9364619255065847	shape	0.699807882309	1.0	0.8	n/a	n/a	58.09870004653931	58.12896609306336	59.09884309768677	n/a	circle.bmp	oval-vertical.bmp	oval-vertical.bmp
59.19580411911011	1.9033529758453296	shape	0.90008687973	1.0	0.8	n/a	n/a	61.09915709495544	61.12894415855408	62.09897804260254	n/a	oval-horizontal.bmp	oval-horizontal.bmp	oval-vertical.bmp
62.1791570186615	1.903037071228028	shape	0.733318090439	1.0	0.8	n/a	n/a	64.08219408988953	64.11226296424866	65.08495306968689	n/a	oval-horizontal.bmp	oval-horizontal.bmp	circle.bmp
65.17914819717407	1.9064128398895264	shape	0.799781799316	1.0	0.8	n/a	n/a	67.0855610370636	67.11223912239075	68.08221197128296	n/a	circle.bmp	circle.bmp	oval-vertical.bmp
68.16231417655945	1.936837911605835	shape	0.933014154434	1.0	0.8	n/a	n/a	70.09915208816528	70.128986120224	71.09880304336548	n/a	oval-horizontal.bmp	circle.bmp	circle.bmp
74.17931199073792	1.9029080867767327	face	0.899857997894	1.0	0.8	71.14904308319092	74.08307814598083	76.08222007751465	76.11234307289124	77.08568215370178	n/a	03F_FE_O.jpg	05F_FE_O.jpg	05F_FE_O.jpg
77.19597101211548	1.9024009704589844	face	0.799622058868	1.0	0.8	n/a	n/a	79.09837198257446	79.12912201881409	80.09880208969116	n/a	FAZ_32.jpg	FAZ_32.jpg	FAX_45.jpg
80.21268200874329	1.8702270984649656	face	1.06619787216	1.0	0.8	n/a	n/a	82.08290910720825	82.1123640537262	83.08550906181335	n/a	MAZ_128.jpg	MAZ_101.jpg	MAZ_101.jpg
83.22957110404968	1.8688769340515137	face	1.03271985054	1.0	0.8	n/a	n/a	85.0984480381012	85.1291651725769	86.06563806533813	n/a	11F_AN_O.jpg	11F_AN_O.jpg	12F_AN_O.jpg
86.21268701553345	1.8700380325317385	face	0.865900993347	1.0	0.8	n/a	n/a	88.08272504806519	88.11249303817749	89.08531618118286	n/a	26M_FE_O.jpg	33M_FE_O.jpg	33M_FE_O.jpg
89.21264219284058	1.8722357749939107	face	0.834908008575	1.0	0.8	n/a	n/a	91.08487796783449	91.11249303817748	92.08260107040404	n/a	MFZ_132.jpg	MFZ_132.jpg	MFZ_120.jpg
95.16295719146729	1.936239004135132	shape	0.833842039108	1.0	0.8	92.13098311424255	95.09838914871216	97.09919619560242	97.12924098968506	98.06561017036438	n/a	circle.bmp	oval-vertical.bmp	oval-vertical.bmp
98.16271305084229	1.935904026031494	shape	0.699895143509	1.0	0.8	n/a	n/a	100.09861707687378	100.12936902046204	101.06562209129332	n/a	oval-horizontal.bmp	oval-horizontal.bmp	circle.bmp
101.16308498382568	1.9357411861419536	shape	0.699767112732	1.0	0.8	n/a	n/a	103.09882616996764	103.12941408157349	104.06585907936096	n/a	oval-horizontal.bmp	oval-vertical.bmp	oval-vertical.bmp
104.16280198097228	1.936005115509048	shape	0.799750804901	1.0	0.8	n/a	n/a	106.09880709648132	106.12941598892212	107.06591200828552	n/a	oval-horizontal.bmp	circle.bmp	circle.bmp
107.16287517547607	1.936028003692627	shape	0.999814987183	1.0	0.8	n/a	n/a	109.0989031791687	109.12942814826964	110.06590104103088	n/a	oval-horizontal.bmp	oval-horizontal.bmp	oval-vertical.bmp
110.1627960205078	1.93603897094728	shape	0.766617059708	1.0	0.8	n/a	n/a	112.09883499145508	112.12932205200195	113.0656681060791	n/a	circle.bmp	circle.bmp	oval-vertical.bmp
116.16293716430664	1.935945987701416	face	0.700123071671	1.0	0.8	113.11564207077026	116.08401799201964	118.09888315200806	118.12949299812315	119.06582808494568	n/a	FAZ_23.jpg	FAZ_23.jpg	FAX_43.jpg
119.19635605812071	1.9023449420929093	face	0.732877969742	1.0	0.8	n/a	n/a	121.09870100021362	121.12954115867616	122.0659110546112	n/a	26M_FE_O.jpg	26M_FE_O.jpg	27M_FE_O.BMP
122.17962098121644	1.90551114082335	face	0.699359178543	1.0	0.8	n/a	n/a	124.0851321220398	124.11281418800354	125.08549809455872	n/a	MFZ_50.jpg	MFZ_50.jpg	MFX_16.jpg
125.22984004020692	1.8686439990997168	face	1.03256607056	1.0	0.8	n/a	n/a	127.09848403930664	127.1296911239624	128.06597900390625	n/a	10F_AN_O.jpg	09F_AN_O.jpg	09F_AN_O.jpg
128.19637608528137	1.9023940563201904	face	1.03287410736	1.0	0.8	n/a	n/a	130.09877014160156	130.1296091079712	131.0659899711609	n/a	38M_AN_O.BMP	39M_AN_O.jpg	39M_AN_O.jpg
131.17970609664917	1.9047269821166992	face	0.999164819717	1.0	0.8	n/a	n/a	133.08443307876587	133.11286306381226	134.08528900146484	n/a	FFZ_102.jpg	FFX_130.jpg	FFX_130.jpg
137.16339015960693	1.903113842010498	shape	0.967017889023	1.0	0.8	134.1430790424347	137.09876918792725	139.06650400161743	139.0963261127472	140.06604719161987	n/a	oval-horizontal.bmp	oval-horizontal.bmp	oval-vertical.bmp
140.16306710243225	1.902915000915528	shape	1.06643891335	1.0	0.8	n/a	n/a	142.06598210334778	142.09630799293518	143.06607913970947	n/a	oval-horizontal.bmp	oval-vertical.bmp	oval-vertical.bmp
143.16305112838745	1.9358329772949217	shape	0.799687862396	1.0	0.8	n/a	n/a	145.09888410568237	145.1298279762268	146.06610703468323	n/a	circle.bmp	circle.bmp	oval-vertical.bmp
146.16312313079834	1.9359400272369385	shape	0.699934005737	1.0	0.8	n/a	n/a	148.09906315803528	148.1298761367798	149.066260099411	n/a	circle.bmp	oval-vertical.bmp	oval-vertical.bmp
149.16310501098633	1.9031121730804443	shape	0.732944011688	1.0	0.8	n/a	n/a	151.06621718406677	151.09638118743896	152.066143989563	n/a	oval-horizontal.bmp	circle.bmp	circle.bmp
152.1631360054016	1.903163194656372	shape	0.66658115387	1.0	0.8	n/a	n/a	154.06629920005798	154.0964481830597	155.0661699771881	n/a	oval-horizontal.bmp	oval-horizontal.bmp	circle.bmp
158.17994904518127	1.9049451351165767	face	1.36681008339	1.0	0.8	155.12519717216492	158.08509016036987	160.08489418029785	160.11309099197388	161.08524799346924	n/a	20M_FE_O.jpg	21M_FE_O.jpg	21M_FE_O.jpg
161.22994112968445	1.8688828945159912	face	0.699505805969	1.0	0.8	n/a	n/a	163.09882402420044	163.12995314598083	164.0662670135498	n/a	01F_AN_O.jpg	07F_AN_O.jpg	07F_AN_O.jpg
164.19655013084412	1.902277946472168	face	0.732661008835	1.0	0.8	n/a	n/a	166.09882807731628	166.12997007369995	167.06626796722412	n/a	FFX_139.jpg	FFZ_102.jpg	FFZ_102.jpg
167.21351504325867	1.8713350296020508	face	0.765926837921	1.0	0.8	n/a	n/a	169.08485007286072	169.11320900917053	170.0856580734253	n/a	23M_AN_O.jpg	23M_AN_O.jpg	22M_AN_O.jpg
170.19682002067566	1.90203595161438	face	0.699493169785	1.0	0.8	n/a	n/a	172.09885597229004	172.1300401687622	173.06630110740662	n/a	MAZ_146.jpg	MAZ_146.jpg	MAX_233.jpg
173.2135181427002	1.872133016586304	face	1.49926185608	1.0	0.8	n/a	n/a	175.0856511592865	175.1131911277771	176.0854411125183	n/a	15F_FE_O.jpg	15F_FE_O.jpg	16F_FE_O.jpg
179.14756298065186	1.938847064971896	shape	0.800440073013	1.0	0.8	176.14597702026367	179.0855951309204	181.0864100456237	181.11325812339783	182.08488607406616	n/a	oval-horizontal.bmp	oval-vertical.bmp	oval-vertical.bmp
182.17999696731567	1.905433177947998	shape	1.26664400101	1.0	0.8	n/a	n/a	184.08543014526367	184.11329412460327	185.08523607254028	n/a	circle.bmp	oval-vertical.bmp	oval-vertical.bmp
185.1800351142884	1.906054973602295	shape	0.733145952225	1.0	0.8	n/a	n/a	187.08609008789065	187.1132841110229	188.08561301231384	n/a	oval-horizontal.bmp	oval-horizontal.bmp	oval-vertical.bmp
188.18005204200745	1.905642986297608	shape	0.733253955841	1.0	0.8	n/a	n/a	190.08569502830505	190.11331915855408	191.08585214614868	n/a	oval-horizontal.bmp	oval-horizontal.bmp	circle.bmp
191.1802740097046	1.905753135681124	shape	0.766520023346	1.0	0.8	n/a	n/a	193.0860271453857	193.11341905593872	194.0853800773621	n/a	circle.bmp	circle.bmp	oval-vertical.bmp
194.1800751686096	1.9049949645996376	shape	0.799802064896	1.0	0.8	n/a	n/a	196.08507013320923	196.11338710784912	197.08306503295896	n/a	oval-horizontal.bmp	circle.bmp	circle.bmp
200.1469130516052	1.9387381076813028	face	0.766654014587	1.0	0.8	197.13538098335263	200.06594800949097	202.0856511592865	202.11341619491577	203.08311200141907	n/a	FFX_54.jpg	FFX_54.jpg	FAX_51.jpg
203.2136731147766	1.8686728477478027	face	0.965864896774	1.0	0.8	n/a	n/a	205.0823459625244	205.11339211463928	206.08311700820923	n/a	40M_FE_O.BMP	41M_FE_O.jpg	41M_FE_O.jpg
206.2137169837952	1.871529102325411	face	0.632806062698	1.0	0.8	n/a	n/a	208.0852460861206	208.1134741306305	209.0831570625305	n/a	29M_AN_O.jpg	29M_AN_O.jpg	28M_AN_O.jpg
209.19733715057373	1.8688879013061523	face	0.599380970001	1.0	0.8	n/a	n/a	211.06622505187988	211.0968880653381	212.06662011146545	n/a	FFZ_18.jpg	FFZ_29.jpg	FFZ_29.jpg
212.21367502212524	1.870876073837224	face	0.932693004608	1.0	0.8	n/a	n/a	214.08455109596247	214.1135001182556	215.0832200050354	n/a	19F_AN_O.jpg	19F_AN_O.jpg	09F_AN_O.jpg
215.1971070766449	1.8691949844360352	face	0.665755987167	1.0	0.8	n/a	n/a	217.06630206108093	217.0969381332397	218.0666880607605	n/a	MFZ_132.jpg	MFZ_7.jpg	MFZ_7.jpg
221.13037514686584	1.936424970626831	shape	0.600425004959	1.0	0.8	218.12835597991943	221.0860130786896	223.06680011749268	223.09709906578064	224.06672501564023	n/a	circle.bmp	oval-vertical.bmp	oval-vertical.bmp
224.1637580394745	1.9028880596160604	shape	0.699812173843	1.0	0.8	n/a	n/a	226.0666460990905	226.0969550609589	227.06675004959104	n/a	oval-horizontal.bmp	oval-horizontal.bmp	circle.bmp
227.1637761592865	1.902916908264132	shape	0.633343935013	1.0	0.8	n/a	n/a	229.06669306755063	229.0969769954681	230.06679701805115	n/a	oval-horizontal.bmp	oval-vertical.bmp	oval-vertical.bmp
230.1638081073761	1.9027900695800497	shape	0.73327589035	1.0	0.8	n/a	n/a	232.0665981769561	232.0970070362091	233.0667831897736	n/a	oval-horizontal.bmp	circle.bmp	circle.bmp
233.1638259887696	1.9029181003570272	shape	0.599597215652	0.0	0.8	n/a	n/a	235.0667440891266	235.09702014923096	236.06680703163147	n/a	oval-horizontal.bmp	oval-horizontal.bmp	oval-vertical.bmp
236.16385197639465	1.902780055999756	shape	0.699714899063	1.0	0.8	n/a	n/a	238.0666320323944	238.0970640182495	239.06682300567627	n/a	circle.bmp	circle.bmp	oval-vertical.bmp
242.1639721393585	1.9027860164642616	face	0.899755954742	1.0	0.8	239.12966799736023	242.06597900390625	244.06675815582275	244.0971121788025	245.0669040679932	n/a	20M_FE_O.jpg	21M_FE_O.jpg	21M_FE_O.jpg
245.2139241695404	1.8710749149322223	face	0.799098968506	1.0	0.8	n/a	n/a	247.08499908447263	247.11403107643127	248.08625507354736	n/a	07F_AN_O.jpg	07F_AN_O.jpg	01F_AN_O.jpg
248.2139220237732	1.8714950084686564	face	1.26604986191	1.0	0.8	n/a	n/a	250.08541703224185	250.11407208442688	251.0853970050812	n/a	FFZ_102.jpg	FFZ_102.jpg	FFX_139.jpg
251.2141511440277	1.870323896408081	face	1.0328540802	1.0	0.8	n/a	n/a	253.0844750404358	253.1140170097351	254.0852739810944	n/a	22M_AN_O.jpg	23M_AN_O.jpg	23M_AN_O.jpg
254.2143080234528	1.8703491687774367	face	0.832436084747	1.0	0.8	n/a	n/a	256.0846571922302	256.11399817466736	257.08629512786865	n/a	MAX_233.jpg	MAZ_146.jpg	MAZ_146.jpg
257.230838060379	1.835776090621948	face	1.26594400406	1.0	0.8	n/a	n/a	259.066614151001	259.097284078598	260.06683707237244	n/a	15F_FE_O.jpg	15F_FE_O.jpg	16F_FE_O.jpg
263.148264169693	1.9351398944854736	shape	0.767121076584	1.0	0.8	260.123095035553	263.0845379829407	265.08340406417847	265.1140561103821	266.0859260559082	n/a	oval-horizontal.bmp	oval-horizontal.bmp	oval-vertical.bmp
266.1806871891022	1.906005859375	shape	0.999980926514	1.0	0.8	n/a	n/a	268.0866930484772	268.11391615867615	269.08697509765625	n/a	oval-horizontal.bmp	oval-vertical.bmp	oval-vertical.bmp
269.1807789802551	1.905766010284424	shape	0.699812889099	1.0	0.8	n/a	n/a	271.08654499053955	271.1139450073242	272.0865840911865	n/a	circle.bmp	circle.bmp	oval-vertical.bmp
272.1807601451874	1.905779838562012	shape	0.666473865509	1.0	0.8	n/a	n/a	274.0865399837494	274.11395812034607	275.0866451263428	n/a	circle.bmp	oval-vertical.bmp	oval-vertical.bmp
275.18084502220154	1.9058380126953125	shape	0.766176939011	1.0	0.8	n/a	n/a	277.08668303489685	277.11398220062256	278.086688041687	n/a	oval-horizontal.bmp	circle.bmp	circle.bmp
278.18079900741577	1.9027841091156008	shape	0.766561031342	1.0	0.8	n/a	n/a	280.0835831165314	280.11431217193604	281.08482599258423	n/a	oval-horizontal.bmp	oval-horizontal.bmp	circle.bmp
284.1308619976044	1.936063051223698	face	0.69987487793	1.0	0.8	281.139258146286	284.0663130283356	286.0669250488281	286.0975341796875	287.0671989917755	n/a	FFZ_18.jpg	FAZ_129.jpg	FAZ_129.jpg
287.2143201828003	1.8713669776916504	face	1.13291883469	1.0	0.8	n/a	n/a	289.08568716049194	289.1140410900116	290.0859310626984	n/a	20M_FE_O.jpg	24M_FE_O.jpg	24M_FE_O.jpg
290.1979739665985	1.8683500289916992	face	1.06611180305	1.0	0.8	n/a	n/a	292.0663239955902	292.0977129936218	293.06711602211	n/a	FAZ_23.jpg	FAX_25.jpg	FAX_25.jpg
293.21438217163086	1.8715009689331623	face	0.932779073715	1.0	0.8	n/a	n/a	295.085883140564	295.11426997184753	296.08559799194336	n/a	33M_FE_O.jpg	33M_FE_O.jpg	35M_FE_O.jpg
296.2309989929199	1.8354520797729488	face	n/a	0.0	0.8	n/a	n/a	298.06645107269287	298.09760904312134	299.0671601295471	n/a	01F_AN_O.jpg	01F_AN_O.jpg	02F_AN_O.jpg
299.1976191997528	1.8688948154448888	face	0.766119003296	1.0	0.8	n/a	n/a	301.0665140151977	301.09759306907654	302.0671620368957	n/a	MFZ_132.jpg	MFZ_132.jpg	MFZ_120.jpg
305.11441707611084	1.9360039234161377	shape	0.634027957916	1.0	0.8	302.131462097168	305.06640815734863	307.050420999527	307.0835671424866	308.0858860015869	n/a	oval-horizontal.bmp	oval-vertical.bmp	oval-vertical.bmp
308.1980440616608	1.8688299655913736	shape	0.733200073242	1.0	0.8	n/a	n/a	310.0668740272522	310.09778213500977	311.0670871734619	n/a	circle.bmp	oval-vertical.bmp	oval-vertical.bmp
311.16454100608826	1.9022951126098635	shape	0.800005912781	1.0	0.8	n/a	n/a	313.0668361186981	313.0975670814514	314.06725096702576	n/a	oval-horizontal.bmp	oval-horizontal.bmp	oval-vertical.bmp
314.1643919944763	1.902562141418457	shape	0.666174888611	1.0	0.8	n/a	n/a	316.0669541358948	316.0978500843048	317.0671350955963	n/a	oval-horizontal.bmp	oval-horizontal.bmp	circle.bmp
317.1643941402436	1.90243482589716	shape	n/a	0.0	0.8	n/a	n/a	319.06682896614075	319.0976800918579	320.06730818748474	n/a	circle.bmp	circle.bmp	oval-vertical.bmp
320.1646180152893	1.902358055114746	shape	0.666174173355	1.0	0.8	n/a	n/a	322.06697607040405	322.0979130268097	323.0673921108246	n/a	oval-horizontal.bmp	circle.bmp	circle.bmp
326.164736032486	1.9018909931182293	face	1.10022592545	1.0	0.8	323.1328911781311	326.06665110588074	328.06662702560425	328.0977590084076	329.06740403175354	n/a	17F_FE_O.jpg	18F_FE_O.jpg	18F_FE_O.jpg
329.21459913253784	1.87126803398138	face	0.732533931732	1.0	0.8	n/a	n/a	331.0858671665192	331.11452412605286	332.08411717414856	n/a	42M_AN_O.jpg	43M_AN_O.jpg	43M_AN_O.jpg
332.21456003189087	1.8690130710601809	face	0.999409914017	1.0	0.8	n/a	n/a	334.08357310295105	334.1147391796112	335.08434104919434	n/a	31M_FE_O.jpg	31M_FE_O.jpg	32M_FE_O.jpg
335.21512603759766	1.8700110912323569	face	0.766026973724	1.0	0.8	n/a	n/a	337.08513712883	337.11463618278503	338.0859761238098	n/a	FAZ_212.jpg	FFZ_236.jpg	FFZ_236.jpg
338.2314929962158	1.8350780010223389	face	0.632584095001	1.0	0.8	n/a	n/a	340.06657099723816	340.0981271266937	341.06747698783875	n/a	06F_FE_O.jpg	06F_FE_O.jpg	08F_FE_O.jpg
341.18134808540344	1.9030160903930664	face	0.865910053253	1.0	0.8	n/a	n/a	343.0843641757965	343.1147110462189	344.08456015586853	n/a	MAZ_128.jpg	MAZ_128.jpg	MAX_39.jpg
347.1483871936798	1.9365499019622805	shape	0.600377082825	1.0	0.8	344.1506950855255	347.0842339992523	349.0849370956421	349.1147711277008	350.0844821929932	n/a	circle.bmp	oval-vertical.bmp	oval-vertical.bmp
350.18134808540344	1.903609037399292	shape	0.633016109467	1.0	0.8	n/a	n/a	352.08495712280273	352.1148281097412	353.0845491886139	n/a	oval-horizontal.bmp	oval-horizontal.bmp	circle.bmp
353.18138217926025	1.902987003326416	shape	0.699865102768	1.0	0.8	n/a	n/a	355.08436918258667	355.1147470474243	356.084676027298	n/a	oval-horizontal.bmp	oval-vertical.bmp	oval-vertical.bmp
356.1815061569214	1.9026968479156487	shape	0.699699878693	1.0	0.8	n/a	n/a	358.08420300483704	358.1146740913391	359.0847010612488	n/a	oval-horizontal.bmp	circle.bmp	circle.bmp
359.18141508102417	1.903022050857544	shape	0.666749000549	1.0	0.8	n/a	n/a	361.0844371318817	361.11491799354553	362.0845451354981	n/a	oval-horizontal.bmp	oval-horizontal.bmp	oval-vertical.bmp
362.1814870834351	1.90271091461176	shape	n/a	0.0	0.8	n/a	n/a	364.0841979980469	364.1149899959564	365.0845460891724	n/a	circle.bmp	circle.bmp	oval-vertical.bmp
368.14821004867554	1.93555212020874	face	0.633544921875	1.0	0.8	365.1507441997528	368.08484506607056	370.0837621688843	370.1149699687958	371.0844340324402	n/a	FFZ_18.jpg	FAZ_129.jpg	FAZ_129.jpg
371.23172903060913	1.8355040550231927	face	1.16603016853	1.0	0.8	n/a	n/a	373.0672330856323	373.09822511672974	374.0678930282593	n/a	20M_FE_O.jpg	24M_FE_O.jpg	24M_FE_O.jpg
374.1982681751251	1.8690509796142576	face	0.799488067627	1.0	0.8	n/a	n/a	376.0673191547394	376.09823513031006	377.06791496276855	n/a	FAZ_23.jpg	FAX_25.jpg	FAX_25.jpg
377.2150490283966	1.8693301677703853	face	0.732564926147	1.0	0.8	n/a	n/a	379.084379196167	379.1150581836701	380.0848231315613	n/a	33M_FE_O.jpg	33M_FE_O.jpg	35M_FE_O.jpg
380.23165702819824	1.8355040550231927	face	n/a	0.0	0.8	n/a	n/a	382.06716108322144	382.098265171051	383.0679681301117	n/a	01F_AN_O.jpg	01F_AN_O.jpg	02F_AN_O.jpg
383.19832611083984	1.8688108921051023	face	n/a	0.0	0.8	n/a	n/a	385.06713700294495	385.0984220504761	386.0679981708527	394.4680950641632	MFZ_132.jpg	MFZ_132.jpg	MFZ_120.jpg
