onset	duration	trial_type	response_time	accuracy_binarized	tr_seconds	cueStartTime	cueEndTime	trialEndTime	fixStartTime	fixEndTime	runEndTime	stimLeft	stimTop	stimRight
11.06321311	1.968579053800001	shape	0.903613090515	0.0	0.8	8.02508997917	11.0151760578	13.0317921638	13.0365970135	14.031026125	n/a	oval-horizontal.bmp	oval-horizontal.bmp	oval-vertical.bmp
14.148512125	1.8828699588999989	shape	0.753728866577	0.0	0.8	n/a	n/a	16.0313820839	16.0353829861	17.0308120251	n/a	oval-horizontal.bmp	oval-vertical.bmp	oval-vertical.bmp
17.1289479733	1.9021210669999995	shape	0.870487928391	1.0	0.8	n/a	n/a	19.0310690403	19.0346519947	20.0296530724	n/a	circle.bmp	circle.bmp	oval-vertical.bmp
20.1273050308	1.9027969837	shape	0.537073850632	1.0	0.8	n/a	n/a	22.0301020145	22.0337181091	23.0297031403	n/a	circle.bmp	oval-vertical.bmp	oval-vertical.bmp
23.1319539547	1.8980700970000013	shape	0.652661800385	1.0	0.8	n/a	n/a	25.0300240517	25.0336489677	26.0296139717	n/a	oval-horizontal.bmp	circle.bmp	circle.bmp
26.1309809685	1.8990499973000008	shape	0.936506032944	1.0	0.8	n/a	n/a	28.0300309658	28.0339210033	29.0296111107	n/a	oval-horizontal.bmp	oval-horizontal.bmp	circle.bmp
32.0920951366	1.9383988381	face	1.03573799133	1.0	0.8	29.104820013	32.0288910866	34.0304939747	34.035022974	35.0286779404	n/a	FAZ_23.jpg	FAZ_23.jpg	FAX_43.jpg
35.1684551239	1.8606998919999995	face	0.703586816788	1.0	0.8	n/a	n/a	37.0291550159	37.0328309536	38.0285100937	n/a	26M_FE_O.jpg	26M_FE_O.jpg	27M_FE_O.BMP
38.1557910442	1.8727390765999985	face	0.734313964844	1.0	0.8	n/a	n/a	40.0285301208	40.0326941013	41.0284290314	n/a	MFX_16.jpg	MFZ_50.jpg	MFZ_50.jpg
41.1840779781	1.8450779914999984	face	1.01990008354	1.0	0.8	n/a	n/a	43.0291559696	43.032793045	44.0272829533	n/a	09F_AN_O.jpg	09F_AN_O.jpg	10F_AN_O.jpg
44.1626300812	1.8657169342000013	face	0.669862031937	1.0	0.8	n/a	n/a	46.0283470154	46.0320219994	47.0273799896	n/a	38M_AN_O.BMP	39M_AN_O.jpg	39M_AN_O.jpg
47.15229702	1.8760321140000045	face	1.58808898926	1.0	0.8	n/a	n/a	49.028329134	49.0320401192	50.027285099	n/a	FFZ_102.jpg	FFX_130.jpg	FFX_130.jpg
53.0648040771	1.9624719620000024	shape	1.23671603203	1.0	0.8	50.1022059917	53.0274779797	55.0272760391	55.0320160389	56.0260090828	n/a	oval-horizontal.bmp	oval-vertical.bmp	oval-vertical.bmp
56.1277251244	1.8992388248000007	shape	1.07037401199	1.0	0.8	n/a	n/a	58.0269639492	58.0305581093	59.0261881351	n/a	circle.bmp	oval-vertical.bmp	oval-vertical.bmp
59.1265859604	1.8996751307999984	shape	0.870723009109	1.0	0.8	n/a	n/a	61.0262610912	61.0299079418	62.0256819725	n/a	oval-horizontal.bmp	oval-horizontal.bmp	oval-vertical.bmp
62.1281311512	1.8975539206999985	shape	0.720113992691	1.0	0.8	n/a	n/a	64.0256850719	64.0293960571	65.0254330635	n/a	oval-horizontal.bmp	oval-horizontal.bmp	circle.bmp
65.1264669895	1.8996560573999943	shape	0.803965091705	1.0	0.8	n/a	n/a	67.0261230469	67.0297870636	68.0255579948	n/a	circle.bmp	circle.bmp	oval-vertical.bmp
68.1264820099	1.8990170956000008	shape	0.6873960495	1.0	0.8	n/a	n/a	70.0254991055	70.0291509628	71.0250761509	n/a	oval-horizontal.bmp	circle.bmp	circle.bmp
74.1156470776	1.9085190296000007	face	1.31729602814	1.0	0.8	71.1026890278	74.0243821144	76.0241661072	76.0287079811	77.024641037	n/a	03F_FE_O.jpg	05F_FE_O.jpg	05F_FE_O.jpg
77.1481130123	1.8757770061999963	face	1.06986618042	1.0	0.8	n/a	n/a	79.0238900185	79.0275061131	80.0237879753	n/a	FAZ_32.jpg	FAZ_32.jpg	FAX_45.jpg
80.1493310928	1.8749780655000023	face	1.14579582214	1.0	0.8	n/a	n/a	82.0243091583	82.0282411575	83.0230150223	n/a	MAZ_128.jpg	MAZ_101.jpg	MAZ_101.jpg
83.1738870144	1.849879980099999	face	0.918699979782	1.0	0.8	n/a	n/a	85.0237669945	85.0273761749	86.0230109692	n/a	11F_AN_O.jpg	11F_AN_O.jpg	12F_AN_O.jpg
86.1723020077	1.851958990100001	face	1.03110814095	1.0	0.8	n/a	n/a	88.0242609978	88.0282981396	89.0229890347	n/a	26M_FE_O.jpg	33M_FE_O.jpg	33M_FE_O.jpg
89.146378994	1.8766610622	face	0.936452150345	1.0	0.8	n/a	n/a	91.0230400562	91.0267381668	92.0217709541	n/a	MFZ_132.jpg	MFZ_132.jpg	MFZ_120.jpg
95.0605361462	1.9619069099000088	shape	0.987487077713	1.0	0.8	92.1006510258	95.0221431255	97.0224430561	97.0273680687	98.0216481686	n/a	circle.bmp	oval-vertical.bmp	oval-vertical.bmp
98.1234080791	1.8976840968999933	shape	1.08773612976	1.0	0.8	n/a	n/a	100.021092176	100.025071144	101.021284103	n/a	oval-horizontal.bmp	oval-horizontal.bmp	circle.bmp
101.123409986	1.8985190399999965	shape	1.53416609764	1.0	0.8	n/a	n/a	103.021929026	103.025882006	104.020812035	n/a	oval-horizontal.bmp	oval-vertical.bmp	oval-vertical.bmp
104.125242949	1.8957321640000089	shape	0.836635828018	1.0	0.8	n/a	n/a	106.020975113	106.024652958	107.020720005	n/a	oval-horizontal.bmp	circle.bmp	circle.bmp
107.126801968	1.8946821690000064	shape	0.587684869766	1.0	0.8	n/a	n/a	109.021484137	109.025356054	110.020365	n/a	oval-horizontal.bmp	oval-horizontal.bmp	oval-vertical.bmp
110.1256001	1.8950629229999976	shape	0.737694978714	1.0	0.8	n/a	n/a	112.020663023	112.024382114	113.019834042	n/a	circle.bmp	circle.bmp	oval-vertical.bmp
116.077126026	1.943666934999996	face	0.803451061249	1.0	0.8	113.100178003	116.019945145	118.020792961	118.026087046	119.020005941	n/a	FAZ_23.jpg	FAZ_23.jpg	FAX_43.jpg
119.157263994	1.862504958999992	face	0.838406085968	1.0	0.8	n/a	n/a	121.019768953	121.023421049	122.018923044	n/a	26M_FE_O.jpg	26M_FE_O.jpg	27M_FE_O.BMP
122.148363113	1.8714499479999915	face	0.753551006317	1.0	0.8	n/a	n/a	124.019813061	124.023764133	125.018919945	n/a	MFZ_50.jpg	MFZ_50.jpg	MFX_16.jpg
125.171158075	1.848140002000008	face	0.936302900314	1.0	0.8	n/a	n/a	127.019298077	127.022927046	128.018876076	n/a	10F_AN_O.jpg	09F_AN_O.jpg	09F_AN_O.jpg
128.152538061	1.866333007999998	face	0.827117919922	1.0	0.8	n/a	n/a	130.018871069	130.022505999	131.017896175	n/a	38M_AN_O.BMP	39M_AN_O.jpg	39M_AN_O.jpg
131.142621994	1.875744104000006	face	1.2706494331375	0.0	0.8	n/a	n/a	133.018366098	133.021980047	134.018421173	n/a	FFZ_102.jpg	FFX_130.jpg	FFX_130.jpg
137.057446003	1.9609720710000147	shape	1.03643989563	1.0	0.8	134.100479126	137.017445087	139.018418074	139.022946119	140.017809153	n/a	oval-horizontal.bmp	oval-horizontal.bmp	oval-vertical.bmp
140.121960163	1.911918878999984	shape	1.1197271347	1.0	0.8	n/a	n/a	142.033879042	142.037552118	143.033447027	n/a	oval-horizontal.bmp	oval-vertical.bmp	oval-vertical.bmp
143.141577005	1.891994000000011	shape	0.720567941666	1.0	0.8	n/a	n/a	145.033571005	145.037173986	146.033171177	n/a	circle.bmp	circle.bmp	oval-vertical.bmp
146.138211012	1.89546394300001	shape	0.687700986862	1.0	0.8	n/a	n/a	148.033674955	148.037384987	149.032694101	n/a	circle.bmp	oval-vertical.bmp	oval-vertical.bmp
149.140028954	1.8929641240000024	shape	0.719768047333	1.0	0.8	n/a	n/a	151.032993078	151.03662014	152.032329082	n/a	oval-horizontal.bmp	circle.bmp	circle.bmp
152.13875699	1.8940441610000107	shape	0.738301992416	1.0	0.8	n/a	n/a	154.032801151	154.036540031	155.031970024	n/a	oval-horizontal.bmp	oval-horizontal.bmp	circle.bmp
158.115225077	1.9170410629999992	face	1.28981304169	1.0	0.8	155.115296125	158.032407045	160.03226614	160.036509991	161.031327009	n/a	20M_FE_O.jpg	21M_FE_O.jpg	21M_FE_O.jpg
161.190484047	1.8415811059999785	face	0.939549922943	1.0	0.8	n/a	n/a	163.032065153	163.035680056	164.030939102	n/a	01F_AN_O.jpg	07F_AN_O.jpg	07F_AN_O.jpg
164.15873313	1.872570037000003	face	1.08418393135	1.0	0.8	n/a	n/a	166.031303167	166.034939051	167.03059411	n/a	FFX_139.jpg	FFZ_102.jpg	FFZ_102.jpg
167.187446117	1.8438019759999804	face	0.886844873428	1.0	0.8	n/a	n/a	169.031248093	169.034999132	170.030441999	n/a	23M_AN_O.jpg	23M_AN_O.jpg	22M_AN_O.jpg
170.157729149	1.873023986999982	face	0.92058801651	1.0	0.8	n/a	n/a	172.030753136	172.034537077	173.030540943	n/a	MAZ_146.jpg	MAZ_146.jpg	MAX_233.jpg
173.184065104	1.8463630669999984	face	1.30523586273	1.0	0.8	n/a	n/a	175.030428171	175.034029961	176.029646158	n/a	15F_FE_O.jpg	15F_FE_O.jpg	16F_FE_O.jpg
179.066861153	1.962160825000012	shape	1.1367650032	1.0	0.8	176.114598036	179.029608011	181.029021978	181.033568144	182.028840065	n/a	oval-horizontal.bmp	oval-vertical.bmp	oval-vertical.bmp
182.140599966	1.8891510960000064	shape	0.80447602272	1.0	0.8	n/a	n/a	184.029751062	184.034111023	185.028377056	n/a	circle.bmp	oval-vertical.bmp	oval-vertical.bmp
185.137249947	1.891690015000023	shape	0.670361995697	1.0	0.8	n/a	n/a	187.028939962	187.032701969	188.028303146	n/a	oval-horizontal.bmp	oval-horizontal.bmp	oval-vertical.bmp
188.14042902	1.88740611099999	shape	0.703500032425	1.0	0.8	n/a	n/a	190.027835131	190.031312943	191.027408123	n/a	oval-horizontal.bmp	oval-horizontal.bmp	circle.bmp
191.140069962	1.8879051199999992	shape	0.719125032425	1.0	0.8	n/a	n/a	193.027975082	193.031598091	194.027318001	n/a	circle.bmp	circle.bmp	oval-vertical.bmp
194.141634941	1.8860771660000069	shape	0.686234951019	1.0	0.8	n/a	n/a	196.027712107	196.031764984	197.027254105	n/a	oval-horizontal.bmp	circle.bmp	circle.bmp
200.084913015	1.9430561069999897	face	0.717739105225	1.0	0.8	197.113722086	200.026988029	202.027969122	202.032638073	203.026829004	n/a	FFX_54.jpg	FFX_54.jpg	FAX_51.jpg
203.169824123	1.8576169019999893	face	0.886950016022	1.0	0.8	n/a	n/a	205.027441025	205.031116009	206.026175022	n/a	40M_FE_O.BMP	41M_FE_O.jpg	41M_FE_O.jpg
206.179896116	1.84650302	face	0.653631925583	1.0	0.8	n/a	n/a	208.026399136	208.0304811	209.026604176	n/a	29M_AN_O.jpg	29M_AN_O.jpg	28M_AN_O.jpg
209.157788992	1.8685691359999907	face	0.918662071228	1.0	0.8	n/a	n/a	211.026358128	211.03008008	212.025397062	n/a	FFZ_18.jpg	FFZ_29.jpg	FFZ_29.jpg
212.182816982	1.8435881139999992	face	0.886159896851	1.0	0.8	n/a	n/a	214.026405096	214.030011177	215.025237083	n/a	19F_AN_O.jpg	19F_AN_O.jpg	09F_AN_O.jpg
215.156344175	1.8693509110000264	face	0.802225828171	1.0	0.8	n/a	n/a	217.025695086	217.029340029	218.025411129	n/a	MFZ_132.jpg	MFZ_7.jpg	MFZ_7.jpg
221.062020063	1.963202953999996	shape	0.603150844574	1.0	0.8	218.113991022	221.025125027	223.025223017	223.02979517	224.024974108	n/a	circle.bmp	oval-vertical.bmp	oval-vertical.bmp
224.137526035	1.886970042999991	shape	1.153236508371	0.0	0.8	n/a	n/a	226.024496078	226.028288126	227.024173975	n/a	oval-horizontal.bmp	oval-horizontal.bmp	circle.bmp
227.137839079	1.8866798880000035	shape	0.685919046402	1.0	0.8	n/a	n/a	229.024518967	229.028128147	230.023616076	n/a	oval-horizontal.bmp	oval-vertical.bmp	oval-vertical.bmp
230.135406971	1.888899087999988	shape	0.799347877502	1.0	0.8	n/a	n/a	232.024306059	232.028363943	233.023142099	n/a	oval-horizontal.bmp	circle.bmp	circle.bmp
233.136294127	1.8871059409999875	shape	1.24907207489	1.0	0.8	n/a	n/a	235.023400068	235.026981115	236.022544146	n/a	oval-horizontal.bmp	oval-horizontal.bmp	oval-vertical.bmp
236.136382103	1.8867509359999983	shape	0.731426000595	1.0	0.8	n/a	n/a	238.023133039	238.026765108	239.023332119	n/a	circle.bmp	circle.bmp	oval-vertical.bmp
242.10268712	1.9205238819999977	face	1.11975288391	1.0	0.8	239.112589121	242.022711992	244.023211002	244.027796984	245.02254796	n/a	20M_FE_O.jpg	21M_FE_O.jpg	21M_FE_O.jpg
245.182038069	1.8404619690000168	face	0.880438089371	1.0	0.8	n/a	n/a	247.022500038	247.026123047	248.021433115	n/a	07F_AN_O.jpg	07F_AN_O.jpg	01F_AN_O.jpg
248.152102947	1.8703341490000007	face	0.72770690918	1.0	0.8	n/a	n/a	250.022437096	250.025917053	251.021357059	n/a	FFZ_102.jpg	FFZ_102.jpg	FFX_139.jpg
251.174882174	1.8468477719999896	face	0.852381944656	1.0	0.8	n/a	n/a	253.021729946	253.025525093	254.021635056	n/a	22M_AN_O.jpg	23M_AN_O.jpg	23M_AN_O.jpg
254.15140605	1.8692739009999848	face	0.830357074738	1.0	0.8	n/a	n/a	256.020679951	256.024423122	257.020457029	n/a	MAX_233.jpg	MAZ_146.jpg	MAZ_146.jpg
257.182990074	1.838155031000042	face	1.03067111969	1.0	0.8	n/a	n/a	259.021145105	259.02504015	260.020051956	n/a	15F_FE_O.jpg	15F_FE_O.jpg	16F_FE_O.jpg
263.057785034	1.963074923000022	shape	0.887027978897	1.0	0.8	260.111614943	263.020338058	265.020859957	265.025738001	266.01969099	n/a	oval-horizontal.bmp	oval-horizontal.bmp	oval-vertical.bmp
266.133344173	1.8859908590000032	shape	0.961660861969	1.0	0.8	n/a	n/a	268.019335032	268.023673058	269.019680977	n/a	oval-horizontal.bmp	oval-vertical.bmp	oval-vertical.bmp
269.135612965	1.8843121520000068	shape	0.645252943039	1.0	0.8	n/a	n/a	271.019925117	271.023885012	272.018649101	n/a	circle.bmp	circle.bmp	oval-vertical.bmp
272.132096052	1.8876879219999976	shape	0.578063964844	1.0	0.8	n/a	n/a	274.019783974	274.023506165	275.019184113	n/a	circle.bmp	oval-vertical.bmp	oval-vertical.bmp
275.136525154	1.881630897999969	shape	0.719131946564	1.0	0.8	n/a	n/a	277.018156052	277.021749973	278.018396139	n/a	oval-horizontal.bmp	circle.bmp	circle.bmp
278.133093119	1.885397910999984	shape	0.610161066055	1.0	0.8	n/a	n/a	280.01849103	280.02225399	281.017678976	n/a	oval-horizontal.bmp	oval-horizontal.bmp	circle.bmp
284.079624176	1.938590765000015	face	0.820785999298	1.0	0.8	281.111339092	284.017907143	286.018214941	286.022957087	287.017632961	n/a	FFZ_18.jpg	FAZ_129.jpg	FAZ_129.jpg
287.179418087	1.8549599650000343	face	1.06066298485	1.0	0.8	n/a	n/a	289.034378052	289.038252115	290.03374815	n/a	20M_FE_O.jpg	24M_FE_O.jpg	24M_FE_O.jpg
290.174038172	1.860724925999989	face	0.903835058212	1.0	0.8	n/a	n/a	292.034763098	292.038371086	293.033288956	n/a	FAZ_23.jpg	FAX_25.jpg	FAX_25.jpg
293.193587065	1.8401639460000183	face	0.635092020035	1.0	0.8	n/a	n/a	295.033751011	295.037429094	296.032896042	n/a	33M_FE_O.jpg	33M_FE_O.jpg	35M_FE_O.jpg
296.200217962	1.833098172999996	face	0.809515953064	1.0	0.8	n/a	n/a	298.033316135	298.036977053	299.032618046	n/a	01F_AN_O.jpg	01F_AN_O.jpg	02F_AN_O.jpg
299.169173002	1.8638651370000048	face	0.858643054962	1.0	0.8	n/a	n/a	301.033038139	301.036705017	302.032220125	n/a	MFZ_132.jpg	MFZ_132.jpg	MFZ_120.jpg
305.070402145	1.9619669919999865	shape	1.01926088333	1.0	0.8	302.127691984	305.03215909	307.032369137	307.036847115	308.032035112	n/a	oval-horizontal.bmp	oval-vertical.bmp	oval-vertical.bmp
308.150362968	1.8811321259999545	shape	0.9248919487	1.0	0.8	n/a	n/a	310.031495094	310.035201073	311.031291962	n/a	circle.bmp	oval-vertical.bmp	oval-vertical.bmp
311.150293112	1.8809888360000289	shape	1.67480802536	1.0	0.8	n/a	n/a	313.031281948	313.034994125	314.030719042	n/a	oval-horizontal.bmp	oval-horizontal.bmp	oval-vertical.bmp
314.155131102	1.876374005999992	shape	0.803649902344	1.0	0.8	n/a	n/a	316.031505108	316.035220146	317.030641079	n/a	oval-horizontal.bmp	oval-horizontal.bmp	circle.bmp
317.152605057	1.8785459989999824	shape	0.656394958496	1.0	0.8	n/a	n/a	319.031151056	319.034793139	320.030981064	n/a	circle.bmp	circle.bmp	oval-vertical.bmp
320.152186155	1.87856483500002	shape	0.740953922272	1.0	0.8	n/a	n/a	322.03075099	322.034394026	323.03025198	n/a	oval-horizontal.bmp	circle.bmp	circle.bmp
326.113252163	1.9170708659999605	face	1.25643801689	1.0	0.8	323.128298998	326.02975297	328.030323029	328.035078049	329.029626131	n/a	17F_FE_O.jpg	18F_FE_O.jpg	18F_FE_O.jpg
329.189733028	1.8399469860000293	face	0.840227842331	1.0	0.8	n/a	n/a	331.029680014	331.033275127	332.029207945	n/a	42M_AN_O.jpg	43M_AN_O.jpg	43M_AN_O.jpg
332.189342022	1.840039967999985	face	0.969460010529	1.0	0.8	n/a	n/a	334.02938199	334.033036947	335.028862953	n/a	31M_FE_O.jpg	31M_FE_O.jpg	32M_FE_O.jpg
335.167294979	1.861736059000009	face	0.622268915176	1.0	0.8	n/a	n/a	337.029031038	337.032665014	338.028174162	n/a	FAZ_212.jpg	FFZ_236.jpg	FFZ_236.jpg
338.19404006	1.8354420659999848	face	0.702811002731	1.0	0.8	n/a	n/a	340.029482126	340.033324003	341.027866125	n/a	06F_FE_O.jpg	06F_FE_O.jpg	08F_FE_O.jpg
341.168157101	1.8605899809999755	face	1.20525383949	1.0	0.8	n/a	n/a	343.028747082	343.032533169	344.028136969	n/a	MAZ_128.jpg	MAZ_128.jpg	MAX_39.jpg
347.064677954	1.96350908300002	shape	0.935507059097	1.0	0.8	344.128345966	347.027693033	349.028187037	349.032694101	350.02760601	n/a	circle.bmp	oval-vertical.bmp	oval-vertical.bmp
350.150748968	1.8766760830000069	shape	0.837100028992	1.0	0.8	n/a	n/a	352.027425051	352.031419992	353.026596069	n/a	oval-horizontal.bmp	oval-horizontal.bmp	circle.bmp
353.147427082	1.8798720839999987	shape	0.92063498497	1.0	0.8	n/a	n/a	355.027299166	355.030929089	356.025784016	n/a	oval-horizontal.bmp	oval-vertical.bmp	oval-vertical.bmp
356.15023303	1.8766751290000343	shape	0.837054014206	1.0	0.8	n/a	n/a	358.026908159	358.030514002	359.026447058	n/a	oval-horizontal.bmp	circle.bmp	circle.bmp
359.147814989	1.8776981830000068	shape	0.67066693306	1.0	0.8	n/a	n/a	361.025513172	361.029126167	362.025388956	n/a	oval-horizontal.bmp	oval-horizontal.bmp	oval-vertical.bmp
362.146540165	1.879114866000009	shape	0.636667966843	1.0	0.8	n/a	n/a	364.025655031	364.029701948	365.025006056	n/a	circle.bmp	circle.bmp	oval-vertical.bmp
368.083919048	1.941715002000024	face	0.999045848846	1.0	0.8	365.123522043	368.025185108	370.02563405	370.030440092	371.024489164	n/a	FFZ_18.jpg	FAZ_129.jpg	FAZ_129.jpg
371.189213037	1.835856915000022	face	1.15332007408	1.0	0.8	n/a	n/a	373.025069952	373.028687	374.024475098	n/a	20M_FE_O.jpg	24M_FE_O.jpg	24M_FE_O.jpg
374.166061163	1.8584499359999995	face	0.920527935028	1.0	0.8	n/a	n/a	376.024511099	376.028610945	377.023813963	n/a	FAZ_23.jpg	FAX_25.jpg	FAX_25.jpg
377.188341141	1.836807011999952	face	1.13607788086	1.0	0.8	n/a	n/a	379.025148153	379.02876997	380.024235964	n/a	33M_FE_O.jpg	33M_FE_O.jpg	35M_FE_O.jpg
380.19322896	1.8311409949999984	face	0.80263710022	1.0	0.8	n/a	n/a	382.024369955	382.028373957	383.02296114	n/a	01F_AN_O.jpg	01F_AN_O.jpg	02F_AN_O.jpg
383.163285017	1.860751151999977	face	1.07099294662	1.0	0.8	n/a	n/a	385.024036169	385.027662039	386.022830009	394.422162056	MFZ_132.jpg	MFZ_132.jpg	MFZ_120.jpg
