onset	duration	trial_type	response_time	accuracy_binarized	tr_seconds	cueStartTime	cueEndTime	trialEndTime	fixStartTime	fixEndTime	runEndTime	stimLeft	stimTop	stimRight
11.0689470768	1.9676449298999987	shape	0.870336055756	1.0	0.8	8.02973008156	11.0197610855	13.0365920067	13.0410411358	14.0355269909	n/a	oval-horizontal.bmp	oval-horizontal.bmp	oval-vertical.bmp
14.1513440609	1.8844439983000016	shape	0.853610992432	0.0	0.8	n/a	n/a	16.0357880592	16.0394589901	17.0352220535	n/a	oval-horizontal.bmp	oval-vertical.bmp	oval-vertical.bmp
17.1353290081	1.9007220268000005	shape	1.01804113388	1.0	0.8	n/a	n/a	19.0360510349	19.0396401882	20.0354030132	n/a	circle.bmp	circle.bmp	oval-vertical.bmp
20.1354401112	1.9003539084999976	shape	0.804724931717	1.0	0.8	n/a	n/a	22.0357940197	22.0397591591	23.0343790054	n/a	circle.bmp	oval-vertical.bmp	oval-vertical.bmp
23.134745121	1.8998448848999985	shape	1.12082290649	1.0	0.8	n/a	n/a	25.0345900059	25.0383310318	26.0338861942	n/a	oval-horizontal.bmp	circle.bmp	circle.bmp
26.1317961216	1.902422904999998	shape	0.920109987259	1.0	0.8	n/a	n/a	28.0342190266	28.0378031731	29.0337560177	n/a	oval-horizontal.bmp	oval-horizontal.bmp	circle.bmp
32.0953831673	1.9391479491999988	face	0.952027082443	1.0	0.8	29.1072871685	32.0336530209	34.0345311165	34.0392141342	35.0333611965	n/a	FAZ_23.jpg	FAZ_23.jpg	FAX_43.jpg
35.1709721088	1.8628859519999992	face	1.43524098396	1.0	0.8	n/a	n/a	37.0338580608	37.0377430916	38.0332221985	n/a	26M_FE_O.jpg	26M_FE_O.jpg	27M_FE_O.BMP
38.1618981361	1.872088909200002	face	0.985780954361	1.0	0.8	n/a	n/a	40.0339870453	40.0376381874	41.0327701569	n/a	MFX_16.jpg	MFZ_50.jpg	MFZ_50.jpg
41.1828010082	1.8509140015000007	face	1.31948781013	1.0	0.8	n/a	n/a	43.0337150097	43.037322998	44.0329110622	n/a	09F_AN_O.jpg	09F_AN_O.jpg	10F_AN_O.jpg
44.1701431274	1.8627779483999944	face	0.952960968018	1.0	0.8	n/a	n/a	46.0329210758	46.0365860462	47.0317749977	n/a	38M_AN_O.BMP	39M_AN_O.jpg	39M_AN_O.jpg
47.155230999	1.8771181106000008	face	1.2191221714	1.0	0.8	n/a	n/a	49.0323491096	49.0360481739	50.0316541195	n/a	FFZ_102.jpg	FFX_130.jpg	FFX_130.jpg
53.0691771507	1.9624869824000013	shape	0.884403944016	1.0	0.8	50.106782198	53.0312922001	55.0316641331	55.0362451077	56.031206131	n/a	oval-horizontal.bmp	oval-vertical.bmp	oval-vertical.bmp
56.1320240498	1.8996469973999976	shape	0.737041950226	1.0	0.8	n/a	n/a	58.0316710472	58.0351810455	59.0313141346	n/a	circle.bmp	oval-vertical.bmp	oval-vertical.bmp
59.1304850578	1.9001979828000013	shape	0.987479925156	1.0	0.8	n/a	n/a	61.0306830406	61.034265995	62.030572176	n/a	oval-horizontal.bmp	oval-horizontal.bmp	oval-vertical.bmp
62.1331670284	1.897494077699996	shape	0.783933162689	1.0	0.8	n/a	n/a	64.0306611061	64.0347590446	65.029143095	n/a	oval-horizontal.bmp	oval-horizontal.bmp	circle.bmp
65.1326851845	1.8974678515999983	shape	0.971886873245	1.0	0.8	n/a	n/a	67.0301530361	67.0337970257	68.0299620628	n/a	circle.bmp	circle.bmp	oval-vertical.bmp
68.1345570087	1.895265102400004	shape	0.837377071381	1.0	0.8	n/a	n/a	70.0298221111	70.0334320068	71.0285410881	n/a	oval-horizontal.bmp	circle.bmp	circle.bmp
74.1173501015	1.9122419357000096	face	1.76888895035	1.0	0.8	71.1056830883	74.0289211273	76.0295920372	76.0347180367	77.0286021233	n/a	03F_FE_O.jpg	05F_FE_O.jpg	05F_FE_O.jpg
77.156345129	1.873201847099992	face	0.914685964584	1.0	0.8	n/a	n/a	79.0295469761	79.0331881046	80.0275840759	n/a	FAZ_32.jpg	FAZ_32.jpg	FAX_45.jpg
80.1549220085	1.8740060330000008	face	1.29666590691	1.0	0.8	n/a	n/a	82.0289280415	82.0325059891	83.0278081894	n/a	MAZ_128.jpg	MAZ_101.jpg	MAZ_101.jpg
83.1696109772	1.8591401577000115	face	0.818109989166	1.0	0.8	n/a	n/a	85.0287511349	85.0324101448	86.0275731087	n/a	11F_AN_O.jpg	11F_AN_O.jpg	12F_AN_O.jpg
86.1768071651	1.8515050412	face	0.803250789642	1.0	0.8	n/a	n/a	88.0283122063	88.0324261189	89.0274641514	n/a	26M_FE_O.jpg	33M_FE_O.jpg	33M_FE_O.jpg
89.1549940109	1.8725550175000047	face	0.946197032928	1.0	0.8	n/a	n/a	91.0275490284	91.0315101147	92.0265381336	n/a	MFZ_132.jpg	MFZ_132.jpg	MFZ_120.jpg
95.0648810863	1.9621040822	shape	0.937098026276	1.0	0.8	92.1053390503	95.0263772011	97.0269851685	97.0315589905	98.0260851383	n/a	circle.bmp	oval-vertical.bmp	oval-vertical.bmp
98.1320359707	1.8939640522999923	shape	0.754588127136	1.0	0.8	n/a	n/a	100.026000023	100.029874086	101.025942087	n/a	oval-horizontal.bmp	oval-horizontal.bmp	circle.bmp
101.129116058	1.896974087000004	shape	0.704838991165	1.0	0.8	n/a	n/a	103.026090145	103.029764175	104.025556087	n/a	oval-horizontal.bmp	oval-vertical.bmp	oval-vertical.bmp
104.132022142	1.8937380320000017	shape	1.05223917961	1.0	0.8	n/a	n/a	106.025760174	106.029488087	107.025173187	n/a	oval-horizontal.bmp	circle.bmp	circle.bmp
107.134960175	1.890555857999999	shape	1.27798199654	1.0	0.8	n/a	n/a	109.025516033	109.029222012	110.024679184	n/a	oval-horizontal.bmp	oval-horizontal.bmp	oval-vertical.bmp
110.129930019	1.894777059999996	shape	0.821767091751	1.0	0.8	n/a	n/a	112.024707079	112.028331995	113.024374008	n/a	circle.bmp	circle.bmp	oval-vertical.bmp
116.076752186	1.9479138850000053	face	0.853046894073	1.0	0.8	113.10355711	116.023440123	118.024666071	118.029512167	119.023725033	n/a	FAZ_23.jpg	FAZ_23.jpg	FAX_43.jpg
119.15753603	1.8667471409999905	face	1.05706810951	1.0	0.8	n/a	n/a	121.024283171	121.028118134	122.023823023	n/a	26M_FE_O.jpg	26M_FE_O.jpg	27M_FE_O.BMP
122.148866177	1.8754909029999995	face	0.87496805191	1.0	0.8	n/a	n/a	124.02435708	124.028432131	125.023146152	n/a	MFZ_50.jpg	MFZ_50.jpg	MFX_16.jpg
125.173217058	1.850620984999992	face	1.15473103523	1.0	0.8	n/a	n/a	127.023838043	127.027429104	128.022691011	n/a	10F_AN_O.jpg	09F_AN_O.jpg	09F_AN_O.jpg
128.157691002	1.865446090999996	face	0.743838071823	1.0	0.8	n/a	n/a	130.023137093	130.02670002	131.022686005	n/a	38M_AN_O.BMP	39M_AN_O.jpg	39M_AN_O.jpg
131.14678216	1.8760669230000249	face	1.10267114639	1.0	0.8	n/a	n/a	133.022849083	133.026518106	134.022374153	n/a	FFZ_102.jpg	FFX_130.jpg	FFX_130.jpg
137.05926013	1.9630889889999992	shape	0.825453996658	1.0	0.8	134.104854107	137.021641016	139.022349119	139.026853085	140.021679163	n/a	oval-horizontal.bmp	oval-horizontal.bmp	oval-vertical.bmp
140.126867056	1.911944151	shape	0.787832975388	1.0	0.8	n/a	n/a	142.038811207	142.042448997	143.021547079	n/a	oval-horizontal.bmp	oval-vertical.bmp	oval-vertical.bmp
143.128669977	1.909399033	shape	0.987873077393	1.0	0.8	n/a	n/a	145.03806901	145.041529179	146.037641048	n/a	circle.bmp	circle.bmp	oval-vertical.bmp
146.143977165	1.893608809	shape	0.75158405304	1.0	0.8	n/a	n/a	148.037585974	148.041213989	149.037489176	n/a	circle.bmp	oval-vertical.bmp	oval-vertical.bmp
149.146784067	1.890623092999988	shape	1.17296218872	1.0	0.8	n/a	n/a	151.03740716	151.040946007	152.036558151	n/a	oval-horizontal.bmp	circle.bmp	circle.bmp
152.146898985	1.8903870579999875	shape	0.840234994888	1.0	0.8	n/a	n/a	154.037286043	154.040889978	155.036589146	n/a	oval-horizontal.bmp	oval-horizontal.bmp	circle.bmp
158.116012096	1.9208800800000176	face	1.78838586807	1.0	0.8	155.120270014	158.036378145	160.036892176	160.041475058	161.035972118	n/a	20M_FE_O.jpg	21M_FE_O.jpg	21M_FE_O.jpg
161.19155407	1.844686031000009	face	0.904447078705	1.0	0.8	n/a	n/a	163.036240101	163.039874077	164.036154985	n/a	01F_AN_O.jpg	07F_AN_O.jpg	07F_AN_O.jpg
164.164561987	1.8712410929999803	face	0.88418507576	1.0	0.8	n/a	n/a	166.03580308	166.039669991	167.034438133	n/a	FFX_139.jpg	FFZ_102.jpg	FFZ_102.jpg
167.185621977	1.8507330420000017	face	0.753367900848	1.0	0.8	n/a	n/a	169.036355019	169.040011168	170.034697056	n/a	23M_AN_O.jpg	23M_AN_O.jpg	22M_AN_O.jpg
170.162688971	1.8725650309999933	face	0.603717088699	1.0	0.8	n/a	n/a	172.035254002	172.038873196	173.034996986	n/a	MAZ_146.jpg	MAZ_146.jpg	MAX_233.jpg
173.187987089	1.8470559120000016	face	1.20598292351	1.0	0.8	n/a	n/a	175.035043001	175.038712025	176.034147024	n/a	15F_FE_O.jpg	15F_FE_O.jpg	16F_FE_O.jpg
179.072611094	1.9615919590000035	shape	0.771287202835	1.0	0.8	176.120791197	179.034381151	181.034203053	181.038938999	182.033370018	n/a	oval-horizontal.bmp	oval-vertical.bmp	oval-vertical.bmp
182.142759085	1.8915541169999983	shape	0.586733818054	1.0	0.8	n/a	n/a	184.034313202	184.037927151	185.033107042	n/a	circle.bmp	oval-vertical.bmp	oval-vertical.bmp
185.144968033	1.8884470460000105	shape	0.920300006866	1.0	0.8	n/a	n/a	187.033415079	187.037044048	188.032793045	n/a	oval-horizontal.bmp	oval-horizontal.bmp	oval-vertical.bmp
188.14331007	1.8896191119999912	shape	0.683483839035	1.0	0.8	n/a	n/a	190.032929182	190.036535978	191.031716108	n/a	oval-horizontal.bmp	oval-horizontal.bmp	circle.bmp
191.142466068	1.889594077999988	shape	0.720327854156	1.0	0.8	n/a	n/a	193.032060146	193.035767078	194.031668186	n/a	circle.bmp	circle.bmp	oval-vertical.bmp
194.144224167	1.8878839010000088	shape	0.719884872437	1.0	0.8	n/a	n/a	196.032108068	196.03582716	197.031517982	n/a	oval-horizontal.bmp	circle.bmp	circle.bmp
200.090630054	1.9416711339999893	face	0.802169084549	1.0	0.8	197.117892981	200.031589985	202.032301188	202.036843061	203.031045198	n/a	FFX_54.jpg	FFX_54.jpg	FAX_51.jpg
203.175476074	1.856193066000003	face	0.736900806427	1.0	0.8	n/a	n/a	205.03166914	205.035289049	206.030807972	n/a	40M_FE_O.BMP	41M_FE_O.jpg	41M_FE_O.jpg
206.182356119	1.849210978000002	face	0.732945203781	1.0	0.8	n/a	n/a	208.031567097	208.035268068	209.030987024	n/a	29M_AN_O.jpg	29M_AN_O.jpg	28M_AN_O.jpg
209.162051201	1.868786811999996	face	0.702764034271	1.0	0.8	n/a	n/a	211.030838013	211.034524202	212.030075073	n/a	FFZ_18.jpg	FFZ_29.jpg	FFZ_29.jpg
212.189908028	1.8407540320000064	face	0.801107883453	1.0	0.8	n/a	n/a	214.03066206	214.034099102	215.029836178	n/a	19F_AN_O.jpg	19F_AN_O.jpg	09F_AN_O.jpg
215.160231113	1.8696339130000013	face	0.70409989357	1.0	0.8	n/a	n/a	217.029865026	217.033493042	218.029398203	n/a	MFZ_132.jpg	MFZ_7.jpg	MFZ_7.jpg
221.065965176	1.9639608859999955	shape	0.805444955826	1.0	0.8	218.118083	221.029016018	223.029926062	223.034734011	224.029044151	n/a	circle.bmp	oval-vertical.bmp	oval-vertical.bmp
224.145075083	1.883918999999992	shape	0.736216068268	1.0	0.8	n/a	n/a	226.028994083	226.032626152	227.029095173	n/a	oval-horizontal.bmp	oval-horizontal.bmp	circle.bmp
227.1438241	1.885001898000013	shape	0.986047029495	1.0	0.8	n/a	n/a	229.028825998	229.032474041	230.027840137	n/a	oval-horizontal.bmp	oval-vertical.bmp	oval-vertical.bmp
230.142703056	1.8857359890000112	shape	0.753318071365	1.0	0.8	n/a	n/a	232.028439045	232.032570124	233.028168201	n/a	oval-horizontal.bmp	circle.bmp	circle.bmp
233.145524979	1.8823950290000084	shape	0.886988162994	1.0	0.8	n/a	n/a	235.027920008	235.031820059	236.02759409	n/a	oval-horizontal.bmp	oval-horizontal.bmp	oval-vertical.bmp
236.145130157	1.882903814999992	shape	0.786906957626	1.0	0.8	n/a	n/a	238.028033972	238.031578064	239.027481079	n/a	circle.bmp	circle.bmp	oval-vertical.bmp
242.103497982	1.9239120480000047	face	0.997568845749	1.0	0.8	239.119594097	242.026656151	244.02741003	244.032374144	245.026767969	n/a	20M_FE_O.jpg	21M_FE_O.jpg	21M_FE_O.jpg
245.188672066	1.838448046999985	face	0.797318935394	1.0	0.8	n/a	n/a	247.027120113	247.030783176	248.025927067	n/a	07F_AN_O.jpg	07F_AN_O.jpg	01F_AN_O.jpg
248.162796974	1.8638260369999955	face	0.78609585762	1.0	0.8	n/a	n/a	250.026623011	250.030331135	251.025672197	n/a	FFZ_102.jpg	FFZ_102.jpg	FFX_139.jpg
251.182226181	1.8438489440000008	face	0.819890975952	1.0	0.8	n/a	n/a	253.026075125	253.029837132	254.025485992	n/a	22M_AN_O.jpg	23M_AN_O.jpg	23M_AN_O.jpg
254.160624981	1.8647501469999952	face	0.703511953354	1.0	0.8	n/a	n/a	256.025375128	256.029829025	257.025475979	n/a	MAX_233.jpg	MAZ_146.jpg	MAZ_146.jpg
257.185680151	1.840263843999992	face	1.39620709419	1.0	0.8	n/a	n/a	259.025943995	259.029644012	260.024665117	n/a	15F_FE_O.jpg	15F_FE_O.jpg	16F_FE_O.jpg
263.063794136	1.961010933000012	shape	1.25458312035	1.0	0.8	260.119821072	263.024863005	265.024805069	265.029503107	266.024062157	n/a	oval-horizontal.bmp	oval-horizontal.bmp	oval-vertical.bmp
266.144713163	1.8789629940000048	shape	0.770570039749	1.0	0.8	n/a	n/a	268.023676157	268.027340174	269.024335146	n/a	oval-horizontal.bmp	oval-vertical.bmp	oval-vertical.bmp
269.141313076	1.8827590939999936	shape	0.917325019836	1.0	0.8	n/a	n/a	271.02407217	271.027734041	272.023292065	n/a	circle.bmp	circle.bmp	oval-vertical.bmp
272.139307976	1.884778023000024	shape	0.829858064651	1.0	0.8	n/a	n/a	274.024085999	274.027887106	275.02326417	n/a	circle.bmp	oval-vertical.bmp	oval-vertical.bmp
275.145635128	1.877017975000001	shape	0.737779140472	1.0	0.8	n/a	n/a	277.022653103	277.026568174	278.022601128	n/a	oval-horizontal.bmp	circle.bmp	circle.bmp
278.138796091	1.8839750289999984	shape	0.777209997177	1.0	0.8	n/a	n/a	280.02277112	280.026527166	281.023063183	n/a	oval-horizontal.bmp	oval-horizontal.bmp	circle.bmp
284.08270216	1.9400699139999915	face	1.02738690376	1.0	0.8	281.117443085	284.022711039	286.022772074	286.027383089	287.021522999	n/a	FFZ_18.jpg	FAZ_129.jpg	FAZ_129.jpg
287.186084986	1.83609914799996	face	0.794005870819	0.0	0.8	n/a	n/a	289.022184134	289.02600503	290.021640062	n/a	20M_FE_O.jpg	24M_FE_O.jpg	24M_FE_O.jpg
290.158205986	1.8636271949999923	face	0.819436073303	1.0	0.8	n/a	n/a	292.021833181	292.025533199	293.021484137	n/a	FAZ_23.jpg	FAX_25.jpg	FAX_25.jpg
293.191929102	1.8301348690000048	face	0.820339918137	1.0	0.8	n/a	n/a	295.022063971	295.025701046	296.021497011	n/a	33M_FE_O.jpg	33M_FE_O.jpg	35M_FE_O.jpg
296.186211109	1.8462178710000217	face	0.803760051727	1.0	0.8	n/a	n/a	298.03242898	298.036077976	299.031138182	n/a	01F_AN_O.jpg	01F_AN_O.jpg	02F_AN_O.jpg
299.168991089	1.868437052000047	face	1.25151205063	1.0	0.8	n/a	n/a	301.037428141	301.04108119	302.036561012	n/a	MFZ_132.jpg	MFZ_132.jpg	MFZ_120.jpg
305.074349165	1.9624729160000245	shape	1.38607597351	1.0	0.8	302.142837048	305.03719306	307.036822081	307.041504145	308.036707163	n/a	oval-horizontal.bmp	oval-vertical.bmp	oval-vertical.bmp
308.15783906	1.8788440229999992	shape	0.900555849075	1.0	0.8	n/a	n/a	310.036683083	310.040326118	311.035783052	n/a	circle.bmp	oval-vertical.bmp	oval-vertical.bmp
311.157770157	1.878324985000006	shape	0.636371850967	1.0	0.8	n/a	n/a	313.036095142	313.039640188	314.035468102	n/a	oval-horizontal.bmp	oval-horizontal.bmp	oval-vertical.bmp
314.156826019	1.878744126000015	shape	0.72300195694	1.0	0.8	n/a	n/a	316.035570145	316.039168119	317.034852982	n/a	oval-horizontal.bmp	oval-horizontal.bmp	circle.bmp
317.155616999	1.879321097999992	shape	0.890816926956	1.0	0.8	n/a	n/a	319.034938097	319.038565159	320.03524518	n/a	circle.bmp	circle.bmp	oval-vertical.bmp
320.154443979	1.8803381920000104	shape	0.790447950363	1.0	0.8	n/a	n/a	322.034782171	322.038587093	323.034240007	n/a	oval-horizontal.bmp	circle.bmp	circle.bmp
326.120118141	1.9145429140000367	face	1.4051990509	1.0	0.8	323.13181901	326.03395915	328.034661055	328.039175987	329.033716202	n/a	17F_FE_O.jpg	18F_FE_O.jpg	18F_FE_O.jpg
329.20636797	1.8281211850000432	face	0.704092025757	1.0	0.8	n/a	n/a	331.034489155	331.038101196	332.033188105	n/a	42M_AN_O.jpg	43M_AN_O.jpg	43M_AN_O.jpg
332.197592974	1.836798191000014	face	0.785983085632	1.0	0.8	n/a	n/a	334.034391165	334.038114071	335.033689976	n/a	31M_FE_O.jpg	31M_FE_O.jpg	32M_FE_O.jpg
335.175624132	1.8576009280000108	face	0.769874095917	1.0	0.8	n/a	n/a	337.03322506	337.037145138	338.032983065	n/a	FAZ_212.jpg	FFZ_236.jpg	FFZ_236.jpg
338.203392982	1.830263137999964	face	0.804614067078	1.0	0.8	n/a	n/a	340.03365612	340.037257195	341.032284021	n/a	06F_FE_O.jpg	06F_FE_O.jpg	08F_FE_O.jpg
341.171007156	1.8619010450000248	face	0.851138830185	1.0	0.8	n/a	n/a	343.032908201	343.036566019	344.031949997	n/a	MAZ_128.jpg	MAZ_128.jpg	MAX_39.jpg
347.069286108	1.9627258780000147	shape	0.837749958038	1.0	0.8	344.134870052	347.031759977	349.032011986	349.036746025	350.031512022	n/a	circle.bmp	oval-vertical.bmp	oval-vertical.bmp
350.156617165	1.874795913000014	shape	0.770370006561	1.0	0.8	n/a	n/a	352.031413078	352.035464048	353.031108141	n/a	oval-horizontal.bmp	oval-horizontal.bmp	circle.bmp
353.156202078	1.875823974000013	shape	0.820601224899	1.0	0.8	n/a	n/a	355.032026052	355.035451174	356.030606985	n/a	oval-horizontal.bmp	oval-vertical.bmp	oval-vertical.bmp
356.15409708	1.8772239689999992	shape	0.687044143677	1.0	0.8	n/a	n/a	358.031321049	358.034960032	359.030937195	n/a	oval-horizontal.bmp	circle.bmp	circle.bmp
359.158689022	1.872099161000051	shape	1.20322990417	1.0	0.8	n/a	n/a	361.030788183	361.034487009	362.029438972	n/a	oval-horizontal.bmp	oval-horizontal.bmp	oval-vertical.bmp
362.155894041	1.873846054000012	shape	0.686220169067	1.0	0.8	n/a	n/a	364.029740095	364.033493042	365.030346155	n/a	circle.bmp	circle.bmp	oval-vertical.bmp
368.086669207	1.9433429239999784	face	0.820473909378	1.0	0.8	365.134772062	368.029280186	370.030012131	370.034537077	371.029427052	n/a	FFZ_18.jpg	FAZ_129.jpg	FAZ_129.jpg
371.189628124	1.839969873999962	face	1.27049684525	1.0	0.8	n/a	n/a	373.029597998	373.033212185	374.028892994	n/a	20M_FE_O.jpg	24M_FE_O.jpg	24M_FE_O.jpg
374.172836065	1.8565189839999905	face	0.752351999283	1.0	0.8	n/a	n/a	376.029355049	376.033090115	377.02849102	n/a	FAZ_23.jpg	FAX_25.jpg	FAX_25.jpg
377.194065094	1.8345639710000228	face	0.75318813324	1.0	0.8	n/a	n/a	379.028629065	379.032690048	380.0285151	n/a	33M_FE_O.jpg	33M_FE_O.jpg	35M_FE_O.jpg
380.196684122	1.832038878999981	face	0.652663946152	1.0	0.8	n/a	n/a	382.028723001	382.032339096	383.028306007	n/a	01F_AN_O.jpg	01F_AN_O.jpg	02F_AN_O.jpg
383.169386148	1.8593988420000187	face	1.0026268959	1.0	0.8	n/a	n/a	385.02878499	385.032410145	386.027477026	394.426405191	MFZ_132.jpg	MFZ_132.jpg	MFZ_120.jpg
