onset	duration	trial_type	response_time	accuracy_binarized	tr_seconds	cueStartTime	cueEndTime	trialEndTime	fixStartTime	fixEndTime	runEndTime	stimLeft	stimTop	stimRight
11.109705924987791	1.9674530029296893	shape	1.10056209564	1.0	0.8	8.067319869995117	11.060069799423218	13.07715892791748	13.109622955322266	14.076709985733032	n/a	oval-horizontal.bmp	oval-horizontal.bmp	oval-vertical.bmp
14.176398992538452	1.900808811187744	shape	0.866778850555	0.0	0.8	n/a	n/a	16.077207803726196	16.109742879867554	17.0766499042511	n/a	oval-horizontal.bmp	oval-vertical.bmp	oval-vertical.bmp
17.15990900993347	1.9336187839508088	shape	0.800579071045	1.0	0.8	n/a	n/a	19.09352779388428	19.126260995864868	20.09339499473572	n/a	circle.bmp	circle.bmp	oval-vertical.bmp
20.1933708190918	1.9005692005157435	shape	0.866762161255	1.0	0.8	n/a	n/a	22.093940019607544	22.126367807388306	23.09334301948548	n/a	circle.bmp	oval-vertical.bmp	oval-vertical.bmp
23.176528930664062	1.900373935699463	shape	1.10036706924	1.0	0.8	n/a	n/a	25.076902866363525	25.10962581634521	26.07680583000183	n/a	oval-horizontal.bmp	circle.bmp	circle.bmp
26.176431894302368	1.9008209705352783	shape	1.03375315666	1.0	0.8	n/a	n/a	28.077252864837646	28.10967779159546	29.076703786849976	n/a	oval-horizontal.bmp	oval-horizontal.bmp	circle.bmp
32.17696785926819	1.902624130249024	face	1.06674695015	1.0	0.8	29.12675380706787	32.09568786621094	34.07959198951721	34.11004900932312	35.07926893234253	n/a	FAZ_23.jpg	FAZ_23.jpg	FAX_43.jpg
35.21045780181885	1.8683960437774656	face	0.866101026535	1.0	0.8	n/a	n/a	37.07885384559631	37.11002588272095	38.07930397987366	n/a	26M_FE_O.jpg	26M_FE_O.jpg	27M_FE_O.BMP
38.193877935409546	1.901634931564331	face	0.865960121155	1.0	0.8	n/a	n/a	40.09551286697388	40.12671494483948	41.06276297569275	n/a	MFX_16.jpg	MFZ_50.jpg	MFZ_50.jpg
41.21055483818054	1.8682770729065008	face	1.36623191833	1.0	0.8	n/a	n/a	43.07883191108704	43.11002087593079	44.079349994659424	n/a	09F_AN_O.jpg	09F_AN_O.jpg	10F_AN_O.jpg
44.21036195755005	1.86893892288208	face	1.69941496849	1.0	0.8	n/a	n/a	46.07930088043213	46.11024284362793	47.07929682731629	n/a	38M_AN_O.BMP	39M_AN_O.jpg	39M_AN_O.jpg
47.19370079040527	1.9017980098724363	face	0.966057777405	1.0	0.8	n/a	n/a	49.09549880027771	49.12671780586243	50.062827825546265	n/a	FFZ_102.jpg	FFX_130.jpg	FFX_130.jpg
53.12703680992127	1.9357080459594656	shape	0.833682775497	1.0	0.8	50.11910080909729	53.07892990112305	55.06274485588074	55.09341382980347	56.06286597251892	n/a	oval-horizontal.bmp	oval-vertical.bmp	oval-vertical.bmp
56.16039800643921	1.9355878829956048	shape	1.33308410645	1.0	0.8	n/a	n/a	58.095985889434814	58.12684082984924	59.06273698806763	n/a	circle.bmp	oval-vertical.bmp	oval-vertical.bmp
59.16041088104248	1.935513019561768	shape	0.900030136108	1.0	0.8	n/a	n/a	61.09592390060425	61.12675499916077	62.06288385391235	n/a	oval-horizontal.bmp	oval-horizontal.bmp	oval-vertical.bmp
62.1604208946228	1.935528993606568	shape	0.733430862427	1.0	0.8	n/a	n/a	64.09594988822937	64.12689685821533	65.06275701522827	n/a	oval-horizontal.bmp	oval-horizontal.bmp	circle.bmp
65.14357781410217	1.935563087463379	shape	0.866311073303	1.0	0.8	n/a	n/a	67.07914090156555	67.11010193824768	68.07947182655334	n/a	circle.bmp	circle.bmp	oval-vertical.bmp
68.1770498752594	1.902575969696045	shape	1.59967112541	1.0	0.8	n/a	n/a	70.07962584495544	70.11016988754272	71.07935380935669	n/a	oval-horizontal.bmp	circle.bmp	circle.bmp
74.1939640045166	1.902076005935669	face	1.23308205605	1.0	0.8	71.12694382667542	74.09579491615295	76.09604001045227	76.12682890892029	77.06275701522827	n/a	03F_FE_O.jpg	05F_FE_O.jpg	05F_FE_O.jpg
77.177081823349	1.9019460678100584	face	1.16630005836	1.0	0.8	n/a	n/a	79.07902789115906	79.11029887199402	80.07938289642334	n/a	FAZ_32.jpg	FAZ_32.jpg	FAX_45.jpg
80.19379186630249	1.9021151065826416	face	1.4327070713	1.0	0.8	n/a	n/a	82.09590697288513	82.12684798240662	83.06272792816162	n/a	MAZ_128.jpg	MAZ_101.jpg	MAZ_101.jpg
83.19397783279419	1.901658058166504	face	1.66604709625	1.0	0.8	n/a	n/a	85.0956358909607	85.12680983543396	86.0627019405365	n/a	11F_AN_O.jpg	11F_AN_O.jpg	12F_AN_O.jpg
86.19382691383362	1.902101993560791	face	1.19942808151	1.0	0.8	n/a	n/a	88.09592890739441	88.12693500518799	89.06276082992554	n/a	26M_FE_O.jpg	33M_FE_O.jpg	33M_FE_O.jpg
89.17708897590637	1.9018750190734863	face	0.966349124908	1.0	0.8	n/a	n/a	91.07896399497986	91.11016082763672	92.07938694953918	n/a	MFZ_132.jpg	MFZ_132.jpg	MFZ_120.jpg
95.14393186569214	1.9354259967803813	shape	0.866765022278	1.0	0.8	92.12717986106873	95.0956687927246	97.07935786247252	97.11033701896667	98.07940101623537	n/a	circle.bmp	oval-vertical.bmp	oval-vertical.bmp
98.16033101081848	1.935719966888442	shape	1.49986505508	1.0	0.8	n/a	n/a	100.09605097770692	100.1270158290863	101.06280899047852	n/a	oval-horizontal.bmp	oval-horizontal.bmp	circle.bmp
101.14368081092834	1.9357080459594729	shape	1.03341507912	1.0	0.8	n/a	n/a	103.07938885688782	103.11019086837769	104.07946586608888	n/a	oval-horizontal.bmp	oval-vertical.bmp	oval-vertical.bmp
104.16033983230592	1.9354941844940043	shape	n/a	0.0	0.8	n/a	n/a	106.09583401679993	106.12685179710388	107.0627748966217	n/a	oval-horizontal.bmp	circle.bmp	circle.bmp
107.14368295669556	1.935768842697144	shape	1.20011687279	1.0	0.8	n/a	n/a	109.0794517993927	109.1102077960968	110.07947182655334	n/a	oval-horizontal.bmp	oval-horizontal.bmp	oval-vertical.bmp
110.16035199165344	1.935571908950792	shape	0.833364009857	1.0	0.8	n/a	n/a	112.09592390060423	112.12694978713988	113.06286692619324	n/a	circle.bmp	circle.bmp	oval-vertical.bmp
116.1605508327484	1.935201168060317	face	1.13649892807	1.0	0.8	113.11470198631288	116.07924699783324	118.09575200080872	118.1268618106842	119.06285786628725	n/a	FAZ_23.jpg	FAZ_23.jpg	FAX_43.jpg
119.19402480125429	1.9020440578460551	face	1.46609210968	1.0	0.8	n/a	n/a	121.09606885910034	121.12694597244264	122.06276798248292	n/a	26M_FE_O.jpg	26M_FE_O.jpg	27M_FE_O.BMP
122.1771969795227	1.902220964431777	face	1.13306498528	1.0	0.8	n/a	n/a	124.07941794395448	124.11030292510986	125.07961082458496	n/a	MFZ_50.jpg	MFZ_50.jpg	MFX_16.jpg
125.2273359298706	1.868427038192749	face	1.43271803856	1.0	0.8	n/a	n/a	127.09576296806335	127.1269040107727	128.06284284591675	n/a	10F_AN_O.jpg	09F_AN_O.jpg	09F_AN_O.jpg
128.19390678405762	1.901752233505249	face	0.766064882278	1.0	0.8	n/a	n/a	130.09565901756287	130.1269187927246	131.0628809928894	n/a	38M_AN_O.BMP	39M_AN_O.jpg	39M_AN_O.jpg
131.17721581459045	1.902116060256958	face	0.865979909897	1.0	0.8	n/a	n/a	133.0793318748474	133.11029291152954	134.0794849395752	n/a	FFZ_102.jpg	FFX_130.jpg	FFX_130.jpg
137.1272418498993	1.935871124267578	shape	n/a	0.0	0.8	134.1295449733734	137.06260991096497	139.06311297416687	139.09361386299133	140.06285095214844	n/a	oval-horizontal.bmp	oval-horizontal.bmp	oval-vertical.bmp
140.160737991333	1.9020678997039795	shape	0.633647918701	1.0	0.8	n/a	n/a	142.062805891037	142.0936119556427	143.06297492980957	n/a	oval-horizontal.bmp	oval-vertical.bmp	oval-vertical.bmp
143.1606059074402	1.9023959636687948	shape	0.766331195831	1.0	0.8	n/a	n/a	145.063001871109	145.0936257839203	146.06290888786316	n/a	circle.bmp	circle.bmp	oval-vertical.bmp
146.16074991226196	1.9353489875793457	shape	0.966417074203	1.0	0.8	n/a	n/a	148.0960988998413	148.12695789337158	149.06297898292542	n/a	circle.bmp	oval-vertical.bmp	oval-vertical.bmp
149.160621881485	1.9023969173431112	shape	0.966216087341	1.0	0.8	n/a	n/a	151.06301879882812	151.0936779975891	152.0628697872162	n/a	oval-horizontal.bmp	circle.bmp	circle.bmp
152.16073894500732	1.9021148681640625	shape	0.933176994324	1.0	0.8	n/a	n/a	154.0628538131714	154.0936279296875	155.0629358291626	n/a	oval-horizontal.bmp	oval-horizontal.bmp	circle.bmp
158.17723989486694	1.902367115020752	face	n/a	0.0	0.8	155.11729097366333	158.07933402061462	160.0796070098877	160.11046290397644	161.07964301109314	n/a	20M_FE_O.jpg	21M_FE_O.jpg	21M_FE_O.jpg
161.22725987434387	1.869128942489624	face	0.832854986191	1.0	0.8	n/a	n/a	163.0963888168335	163.1270089149475	164.0630238056183	n/a	01F_AN_O.jpg	07F_AN_O.jpg	07F_AN_O.jpg
164.19402599334717	1.901703834533692	face	0.866353988647	1.0	0.8	n/a	n/a	166.09572982788086	166.12721586227417	167.0629699230194	n/a	FFX_139.jpg	FFZ_102.jpg	FFZ_102.jpg
167.2111918926239	1.8681590557098389	face	1.19970297813	0.0	0.8	n/a	n/a	169.07935094833374	169.11051893234253	170.0796229839325	n/a	23M_AN_O.jpg	23M_AN_O.jpg	22M_AN_O.jpg
170.1941568851471	1.9021620750427248	face	0.999940872192	1.0	0.8	n/a	n/a	172.09631896018982	172.12707495689392	173.06300687789917	n/a	MAZ_146.jpg	MAZ_146.jpg	MAX_233.jpg
173.21085596084595	1.8684568405151367	face	1.03282499313	1.0	0.8	n/a	n/a	175.07931280136108	175.11057782173157	176.07978892326355	n/a	15F_FE_O.jpg	15F_FE_O.jpg	16F_FE_O.jpg
179.12767481803894	1.935873031616211	shape	1.76685190201	1.0	0.8	176.14112782478333	179.06271481513977	181.06354784965515	181.09381198883057	182.06292295455933	n/a	oval-horizontal.bmp	oval-vertical.bmp	oval-vertical.bmp
182.1608209609985	1.9023869037628167	shape	0.666398048401	1.0	0.8	n/a	n/a	184.06320786476127	184.09376502037048	185.06306791305545	n/a	circle.bmp	oval-vertical.bmp	oval-vertical.bmp
185.16070985794067	1.902541160583496	shape	0.833329916	1.0	0.8	n/a	n/a	187.06325101852417	187.09372401237488	188.0629618167877	n/a	oval-horizontal.bmp	oval-horizontal.bmp	oval-vertical.bmp
188.160838842392	1.9019930362701127	shape	0.69989490509	1.0	0.8	n/a	n/a	190.0628318786621	190.09371089935303	191.0629749298096	n/a	oval-horizontal.bmp	oval-horizontal.bmp	circle.bmp
191.1608579158783	1.9024338722229004	shape	1.10002303123	1.0	0.8	n/a	n/a	193.0632917881012	193.09384179115293	194.0629379749298	n/a	circle.bmp	circle.bmp	oval-vertical.bmp
194.1608657836914	1.901895999908448	shape	n/a	0.0	0.8	n/a	n/a	196.06276178359985	196.09372186660767	197.0630848407745	n/a	oval-horizontal.bmp	circle.bmp	circle.bmp
200.16087698936465	1.901858806610108	face	0.900114059448	1.0	0.8	197.12390899658203	200.07931089401245	202.0627357959748	202.09373593330383	203.06294798851013	n/a	FFX_54.jpg	FFX_54.jpg	FAX_51.jpg
203.1940670013428	1.9022448062896444	face	1.03315091133	1.0	0.8	n/a	n/a	205.09631180763245	205.12713384628296	206.06291699409485	n/a	40M_FE_O.BMP	41M_FE_O.jpg	41M_FE_O.jpg
206.19409489631653	1.9017550945282269	face	0.933061122894	1.0	0.8	n/a	n/a	208.09584999084475	208.12706184387207	209.06296682357788	n/a	29M_AN_O.jpg	29M_AN_O.jpg	28M_AN_O.jpg
209.1773989200592	1.9017879962920856	face	n/a	0.0	0.8	n/a	n/a	211.0791869163513	211.1104049682617	212.07965993881223	n/a	FFZ_18.jpg	FFZ_29.jpg	FFZ_29.jpg
212.21070981025696	1.8686699867248533	face	1.06628608704	1.0	0.8	n/a	n/a	214.0793797969818	214.1104729175568	215.0796809196472	n/a	19F_AN_O.jpg	19F_AN_O.jpg	09F_AN_O.jpg
215.19408679008484	1.9018921852111528	face	1.16615796089	1.0	0.8	n/a	n/a	217.095978975296	217.12717580795288	218.06301283836365	n/a	MFZ_132.jpg	MFZ_7.jpg	MFZ_7.jpg
221.12735199928284	1.9355478286743164	shape	n/a	0.0	0.8	218.11757278442383	221.07932496070865	223.06289982795715	223.0937819480896	224.0630688667297	n/a	circle.bmp	oval-vertical.bmp	oval-vertical.bmp
224.1607859134674	1.9021821022033976	shape	n/a	0.0	0.8	n/a	n/a	226.0629680156708	226.09376001358032	227.0630049705505	n/a	oval-horizontal.bmp	oval-horizontal.bmp	circle.bmp
227.16078686714167	1.9020061492920208	shape	n/a	0.0	0.8	n/a	n/a	229.0627930164337	229.09378099441528	230.0630648136139	n/a	oval-horizontal.bmp	oval-vertical.bmp	oval-vertical.bmp
230.16060280799863	1.9027290344238563	shape	1.10010695457	1.0	0.8	n/a	n/a	232.06333184242249	232.09381294250488	233.0630049705505	n/a	oval-horizontal.bmp	circle.bmp	circle.bmp
233.1607699394226	1.902225971221924	shape	0.866477012634	1.0	0.8	n/a	n/a	235.06299591064453	235.09379696846008	236.063138961792	n/a	oval-horizontal.bmp	oval-horizontal.bmp	oval-vertical.bmp
236.1608018875122	1.9020509719848635	shape	0.866310119629	1.0	0.8	n/a	n/a	238.06285285949707	238.09380888938904	239.06306099891663	n/a	circle.bmp	circle.bmp	oval-vertical.bmp
242.17740392684937	1.902639865875244	face	1.46666908264	1.0	0.8	239.11686086654663	242.07941198349	244.0800437927246	244.110613822937	245.07972383499143	n/a	20M_FE_O.jpg	21M_FE_O.jpg	21M_FE_O.jpg
245.22746586799624	1.868615150451632	face	0.932818889618	1.0	0.8	n/a	n/a	247.09608101844788	247.1272518634796	248.06306099891663	n/a	07F_AN_O.jpg	07F_AN_O.jpg	01F_AN_O.jpg
248.1773288249969	1.9020409584045688	face	0.799443006516	1.0	0.8	n/a	n/a	250.0793697834015	250.11049890518188	251.07974886894223	n/a	FFZ_102.jpg	FFZ_102.jpg	FFX_139.jpg
251.21086382865903	1.86890411376956	face	1.63318896294	1.0	0.8	n/a	n/a	253.0797679424286	253.1107218265533	254.07985591888428	n/a	22M_AN_O.jpg	23M_AN_O.jpg	23M_AN_O.jpg
254.19418001174927	1.9018738269805908	face	0.866381168365	1.0	0.8	n/a	n/a	256.09605383872986	256.1271629333496	257.06308484077454	n/a	MAX_233.jpg	MAZ_146.jpg	MAZ_146.jpg
257.19435000419617	1.9016928672790527	face	0.999733924866	1.0	0.8	n/a	n/a	259.0960428714752	259.1273889541626	260.0632109642029	n/a	15F_FE_O.jpg	15F_FE_O.jpg	16F_FE_O.jpg
263.11090898513794	1.9689338207244875	shape	0.800300836563	1.0	0.8	260.1264579296112	263.0628008842468	265.0798428058624	265.11052680015564	266.0799858570099	n/a	oval-horizontal.bmp	oval-horizontal.bmp	oval-vertical.bmp
266.1773359775543	1.9026648998261064	shape	1.00020289421	0.0	0.8	n/a	n/a	268.0800008773804	268.1105659008026	269.0797688961029	n/a	oval-horizontal.bmp	oval-vertical.bmp	oval-vertical.bmp
269.17735290527344	1.902191877365056	shape	1.33313417435	1.0	0.8	n/a	n/a	271.0795447826385	271.1107528209686	272.0797758102417	n/a	circle.bmp	circle.bmp	oval-vertical.bmp
272.1774709224701	1.9025299549103352	shape	n/a	0.0	0.8	n/a	n/a	274.0800008773804	274.1106379032135	275.0797119140625	n/a	circle.bmp	oval-vertical.bmp	oval-vertical.bmp
275.17734384536743	1.9024720191955569	shape	n/a	0.0	0.8	n/a	n/a	277.079815864563	277.1106059551239	278.0799608230591	n/a	oval-horizontal.bmp	circle.bmp	circle.bmp
278.1773669719696	1.902714967727661	shape	0.833196878433	1.0	0.8	n/a	n/a	280.08008193969727	280.1105887889862	281.07981300354004	n/a	oval-horizontal.bmp	oval-horizontal.bmp	circle.bmp
284.14432287216187	1.9357271194458008	face	1.33300685883	1.0	0.8	281.13536381721497	284.0628068447113	286.08004999160767	286.11069798469543	287.07980585098267	n/a	FFZ_18.jpg	FAZ_129.jpg	FAZ_129.jpg
287.2277638912201	1.8682060241699217	face	n/a	0.0	0.8	n/a	n/a	289.09596991539	289.1274259090424	290.0632028579712	n/a	20M_FE_O.jpg	24M_FE_O.jpg	24M_FE_O.jpg
290.1775469779968	1.9019708633422847	face	1.19932889938	1.0	0.8	n/a	n/a	292.0795178413391	292.1106119155884	293.0798139572144	n/a	FAZ_23.jpg	FAX_25.jpg	FAX_25.jpg
293.2274899482727	1.86853289604187	face	0.999342918396	1.0	0.8	n/a	n/a	295.0960228443146	295.12744998931885	296.0632789134979	n/a	33M_FE_O.jpg	33M_FE_O.jpg	35M_FE_O.jpg
296.21091890335083	1.8690099716186523	face	1.19936299324	1.0	0.8	n/a	n/a	298.0799288749695	298.1106929779053	299.0798089504242	n/a	01F_AN_O.jpg	01F_AN_O.jpg	02F_AN_O.jpg
299.1940908432007	1.9019629955291748	face	0.966020107269	1.0	0.8	n/a	n/a	301.09605383872986	301.12725496292114	302.063287973404	n/a	MFZ_132.jpg	MFZ_132.jpg	MFZ_120.jpg
305.1107289791107	1.9696288108825684	shape	1.23389005661	0.0	0.8	302.1281569004059	305.0628228187561	307.0803577899933	307.1107149124145	308.08000683784485	n/a	oval-horizontal.bmp	oval-vertical.bmp	oval-vertical.bmp
308.1943299770355	1.8690998554229736	shape	0.900025844574	1.0	0.8	n/a	n/a	310.0634298324585	310.0939869880676	311.06319785118103	n/a	circle.bmp	oval-vertical.bmp	oval-vertical.bmp
311.16073989868164	1.9025049209594729	shape	1.19984912872	1.0	0.8	n/a	n/a	313.0632448196411	313.093918800354	314.0631618499756	n/a	oval-horizontal.bmp	oval-horizontal.bmp	oval-vertical.bmp
314.1609439849853	1.902552843093929	shape	0.8998939991	1.0	0.8	n/a	n/a	316.0634968280792	316.09405183792114	317.0632429122925	n/a	oval-horizontal.bmp	oval-horizontal.bmp	circle.bmp
317.1609377861023	1.902053117752132	shape	0.833025932312	1.0	0.8	n/a	n/a	319.0629909038544	319.0939300060272	320.0633039474488	n/a	circle.bmp	circle.bmp	oval-vertical.bmp
320.1607849597931	1.902237892150936	shape	1.06636118889	1.0	0.8	n/a	n/a	322.063022851944	322.0941429138184	323.0632429122925	n/a	oval-horizontal.bmp	circle.bmp	circle.bmp
326.19448590278625	1.8688569068908687	face	1.16660881042	1.0	0.8	323.12387895584106	326.0796568393707	328.0633428096771	328.09410285949707	329.06332182884216	n/a	17F_FE_O.jpg	18F_FE_O.jpg	18F_FE_O.jpg
329.2109968662262	1.868669033050537	face	0.799601078033	1.0	0.8	n/a	n/a	331.07966589927673	331.110711812973	332.0799198150635	n/a	42M_AN_O.jpg	43M_AN_O.jpg	43M_AN_O.jpg
332.2276058197021	1.835330009460506	face	1.43281507492	1.0	0.8	n/a	n/a	334.0629358291626	334.09398198127747	335.06322598457336	n/a	31M_FE_O.jpg	31M_FE_O.jpg	32M_FE_O.jpg
335.19473695755005	1.8680298328399656	face	0.866312980652	1.0	0.8	n/a	n/a	337.06276679039	337.093976020813	338.0632779598236	n/a	FAZ_212.jpg	FFZ_236.jpg	FFZ_236.jpg
338.2111430168152	1.8686418533325195	face	1.73310017586	0.0	0.8	n/a	n/a	340.0797848701477	340.1108298301697	341.0799717903137	n/a	06F_FE_O.jpg	06F_FE_O.jpg	08F_FE_O.jpg
341.2109999656677	1.8687870502471924	face	0.833041906357	1.0	0.8	n/a	n/a	343.0797870159149	343.1108498573303	344.0800108909607	n/a	MAZ_128.jpg	MAZ_128.jpg	MAX_39.jpg
347.14434480667114	1.9359920024871824	shape	1.0337100029	1.0	0.8	344.1462287902832	347.0797128677368	349.0803368091583	349.11076498031616	350.08004784584045	n/a	circle.bmp	oval-vertical.bmp	oval-vertical.bmp
350.1774868965149	1.9024040699005127	shape	1.40008687973	1.0	0.8	n/a	n/a	352.0798909664154	352.11083579063416	353.07999086380005	n/a	oval-horizontal.bmp	oval-horizontal.bmp	circle.bmp
353.1776659488678	1.902516841888428	shape	0.966561079025	1.0	0.8	n/a	n/a	355.0801827907562	355.110720872879	356.0799939632416	n/a	oval-horizontal.bmp	oval-vertical.bmp	oval-vertical.bmp
356.19443798065186	1.8686518669128416	shape	0.899455070496	1.0	0.8	n/a	n/a	358.0630898475647	358.0940089225769	359.06332778930664	n/a	oval-horizontal.bmp	circle.bmp	circle.bmp
359.1610109806061	1.902508020401001	shape	0.800174951553	1.0	0.8	n/a	n/a	361.0635190010071	361.0941410064697	362.0633189678192	n/a	oval-horizontal.bmp	oval-horizontal.bmp	oval-vertical.bmp
362.16103982925415	1.9023900032043457	shape	0.999657154083	1.0	0.8	n/a	n/a	364.0634298324585	364.0940909385681	365.0632908344269	n/a	circle.bmp	circle.bmp	oval-vertical.bmp
368.1610429286957	1.90186095237732	face	1.19983792305	1.0	0.8	365.1232619285584	368.0798008441925	370.062903881073	370.0940380096436	371.06336283683777	n/a	FFZ_18.jpg	FAZ_129.jpg	FAZ_129.jpg
371.21136498451233	1.8681519031524656	face	n/a	0.0	0.8	n/a	n/a	373.0795168876648	373.11073899269104	374.0799729824066	n/a	20M_FE_O.jpg	24M_FE_O.jpg	24M_FE_O.jpg
374.19420194625854	1.8685429096222488	face	n/a	0.0	0.8	n/a	n/a	376.0627448558808	376.0940477848053	377.06337785720825	n/a	FAZ_23.jpg	FAX_25.jpg	FAX_25.jpg
377.21121883392334	1.8683409690856363	face	n/a	0.0	0.8	n/a	n/a	379.079559803009	379.110741853714	380.0799388885498	n/a	33M_FE_O.jpg	33M_FE_O.jpg	35M_FE_O.jpg
380.2276937961578	1.8351790904999348	face	1.16645908356	1.0	0.8	n/a	n/a	382.0628728866577	382.0940568447113	383.0633428096771	n/a	01F_AN_O.jpg	01F_AN_O.jpg	02F_AN_O.jpg
383.1944007873535	1.8685061931610107	face	0.966325998306	1.0	0.8	n/a	n/a	385.0629069805145	385.094046831131	386.0632998943329	394.4799818992615	MFZ_132.jpg	MFZ_132.jpg	MFZ_120.jpg
