onset	duration	trial_type	response_time	accuracy_binarized	tr_seconds	cueStartTime	cueEndTime	trialEndTime	fixStartTime	fixEndTime	runEndTime	stimLeft	stimTop	stimRight
11.0666029453	1.9633679390000007	shape	0.966670036316	1.0	0.8	8.02414798737	11.0139558315	13.0299708843	13.0461950302	14.028400898	n/a	oval-horizontal.bmp	oval-horizontal.bmp	oval-vertical.bmp
14.1517529488	1.876146078099998	shape	0.982464075089	1.0	0.8	n/a	n/a	16.0278990269	16.045320034	17.0279119015	n/a	oval-horizontal.bmp	oval-vertical.bmp	oval-vertical.bmp
17.135602951	1.8929200173	shape	0.714104890823	1.0	0.8	n/a	n/a	19.0285229683	19.0519227982	20.0438168049	n/a	circle.bmp	circle.bmp	oval-vertical.bmp
20.154971838	1.8889300823	shape	0.776734113693	1.0	0.8	n/a	n/a	22.0439019203	22.0602128506	23.0428879261	n/a	circle.bmp	oval-vertical.bmp	oval-vertical.bmp
23.1552150249	1.8868319989	shape	0.671130895615	1.0	0.8	n/a	n/a	25.0420470238	25.0589389801	26.0423138142	n/a	oval-horizontal.bmp	circle.bmp	circle.bmp
26.1580348015	1.8844192028	shape	0.67151594162	1.0	0.8	n/a	n/a	28.0424540043	28.0589878559	29.0412049294	n/a	oval-horizontal.bmp	oval-horizontal.bmp	circle.bmp
32.107863903	1.9327049255999995	face	0.689206838608	1.0	0.8	29.1101789474	32.0408918858	34.0405688286	34.0569238663	35.0391128063	n/a	FAZ_23.jpg	FAZ_23.jpg	FAX_43.jpg
35.1910829544	1.848296880699997	face	0.851039171219	1.0	0.8	n/a	n/a	37.0393798351	37.0559618473	38.0379109383	n/a	26M_FE_O.jpg	26M_FE_O.jpg	27M_FE_O.BMP
38.1636209488	1.8741240501000007	face	0.595853805542	1.0	0.8	n/a	n/a	40.0377449989	40.053126812	41.0379619598	n/a	MFX_16.jpg	MFZ_50.jpg	MFZ_50.jpg
41.1880848408	1.844577074	face	0.820246934891	1.0	0.8	n/a	n/a	43.0326619148	43.0499768257	44.0362789631	n/a	09F_AN_O.jpg	09F_AN_O.jpg	10F_AN_O.jpg
44.1840949059	1.8530499935000009	face	0.718033075333	1.0	0.8	n/a	n/a	46.0371448994	46.0536549091	47.0363538265	n/a	38M_AN_O.BMP	39M_AN_O.jpg	39M_AN_O.jpg
47.1700208187	1.8669800757999937	face	1.02204108238	1.0	0.8	n/a	n/a	49.0370008945	49.0530660152	50.036149025	n/a	FFZ_102.jpg	FFX_130.jpg	FFX_130.jpg
53.0868268013	1.948121070900001	shape	0.700748920441	1.0	0.8	50.109443903	53.03470397	55.0349478722	55.0511507988	56.0335929394	n/a	oval-horizontal.bmp	oval-vertical.bmp	oval-vertical.bmp
56.1400549412	1.892637014400001	shape	0.630177974701	1.0	0.8	n/a	n/a	58.0326919556	58.0502438545	59.0322778225	n/a	circle.bmp	oval-vertical.bmp	oval-vertical.bmp
59.1425449848	1.890005827000003	shape	n/a	0.0	0.8	n/a	n/a	61.0325508118	61.0491409302	62.0321760178	n/a	oval-horizontal.bmp	oval-horizontal.bmp	oval-vertical.bmp
62.1431138515	1.9009511471000096	shape	0.887433052063	1.0	0.8	n/a	n/a	64.0440649986	64.0604829788	65.02785182	n/a	oval-horizontal.bmp	oval-horizontal.bmp	circle.bmp
65.1310548782	1.9001610278999976	shape	1.178922533987	0.0	0.8	n/a	n/a	67.0312159061	67.0477848053	68.0306949615	n/a	circle.bmp	circle.bmp	oval-vertical.bmp
68.1464469433	1.884330034199991	shape	0.754456996918	1.0	0.8	n/a	n/a	70.0307769775	70.0470628738	71.0300898552	n/a	oval-horizontal.bmp	circle.bmp	circle.bmp
74.116147995	1.9126799106999923	face	0.982128858566	0.0	0.8	71.1018760204	74.0291888714	76.0288279057	76.0451300144	77.0277919769	n/a	03F_FE_O.jpg	05F_FE_O.jpg	05F_FE_O.jpg
77.1620919704	1.8660049438999948	face	0.936317920685	1.0	0.8	n/a	n/a	79.0280969143	79.0441458225	80.0436320305	n/a	FAZ_32.jpg	FAZ_32.jpg	FAX_45.jpg
80.1698088646	1.8736829757999944	face	1.29322099686	1.0	0.8	n/a	n/a	82.0434918404	82.0602238178	83.0429198742	n/a	MAZ_128.jpg	MAZ_101.jpg	MAZ_101.jpg
83.1938679218	1.8441998958999903	face	0.971053123474	1.0	0.8	n/a	n/a	85.0380678177	85.05437994	86.04210186	n/a	11F_AN_O.jpg	11F_AN_O.jpg	12F_AN_O.jpg
86.1922399998	1.8491919040000084	face	0.740555763245	1.0	0.8	n/a	n/a	88.0414319038	88.0580399036	89.0415329933	n/a	26M_FE_O.jpg	33M_FE_O.jpg	33M_FE_O.jpg
89.1741130352	1.867516994500008	face	0.772037982941	1.0	0.8	n/a	n/a	91.0416300297	91.0583159924	92.0404949188	n/a	MFZ_132.jpg	MFZ_132.jpg	MFZ_120.jpg
95.0917828083	1.947975158700004	shape	1.36249899864	1.0	0.8	92.1131408215	95.0398888588	97.039757967	97.0559148788	98.0386219025	n/a	circle.bmp	oval-vertical.bmp	oval-vertical.bmp
98.156621933	1.88192796700001	shape	0.653941869736	1.0	0.8	n/a	n/a	100.0385499	100.054996014	101.03726697	n/a	oval-horizontal.bmp	oval-horizontal.bmp	circle.bmp
101.155539989	1.882396936999996	shape	0.710973024368	1.0	0.8	n/a	n/a	103.037936926	103.054631948	104.037040949	n/a	oval-horizontal.bmp	oval-vertical.bmp	oval-vertical.bmp
104.149189949	1.883544921999999	shape	n/a	0.0	0.8	n/a	n/a	106.032734871	106.04902792	107.032562017	n/a	oval-horizontal.bmp	circle.bmp	circle.bmp
107.150437832	1.885977983000004	shape	0.720380067825	1.0	0.8	n/a	n/a	109.036415815	109.052455902	110.035467863	n/a	oval-horizontal.bmp	oval-horizontal.bmp	oval-vertical.bmp
110.152510881	1.8830509189999989	shape	0.63769197464	1.0	0.8	n/a	n/a	112.0355618	112.052351952	113.034919977	n/a	circle.bmp	circle.bmp	oval-vertical.bmp
116.102455854	1.9316389560000005	face	0.78658413887	1.0	0.8	113.108006954	116.033627987	118.03409481	118.050187826	119.033085823	n/a	FAZ_23.jpg	FAZ_23.jpg	FAX_43.jpg
119.174202919	1.858515978	face	0.963475942612	1.0	0.8	n/a	n/a	121.032718897	121.049146891	122.031958818	n/a	26M_FE_O.jpg	26M_FE_O.jpg	27M_FE_O.BMP
122.158555031	1.87336277899999	face	0.877774000168	1.0	0.8	n/a	n/a	124.03191781	124.048300028	125.030133963	n/a	MFZ_50.jpg	MFZ_50.jpg	MFX_16.jpg
125.180851936	1.862973929000006	face	0.721194982529	1.0	0.8	n/a	n/a	127.043825865	127.060325861	128.027283907	n/a	10F_AN_O.jpg	09F_AN_O.jpg	09F_AN_O.jpg
128.178695917	1.8515090939999936	face	1.01981115341	1.0	0.8	n/a	n/a	130.030205011	130.046835899	131.029510975	n/a	38M_AN_O.BMP	39M_AN_O.jpg	39M_AN_O.jpg
131.163841009	1.866261006000002	face	1.10365509987	1.0	0.8	n/a	n/a	133.030102015	133.046840906	134.029192924	n/a	FFZ_102.jpg	FFX_130.jpg	FFX_130.jpg
137.079413891	1.9485719200000065	shape	0.720153808594	1.0	0.8	134.108253956	137.028230906	139.027985811	139.044118881	140.043576956	n/a	oval-horizontal.bmp	oval-horizontal.bmp	oval-vertical.bmp
140.168205023	1.875229834999999	shape	n/a	0.0	0.8	n/a	n/a	142.043434858	142.060251951	143.042784929	n/a	oval-horizontal.bmp	oval-vertical.bmp	oval-vertical.bmp
143.160943031	1.8816778660000184	shape	0.890618085861	1.0	0.8	n/a	n/a	145.042620897	145.059275866	146.041889906	n/a	circle.bmp	circle.bmp	oval-vertical.bmp
146.154109955	1.8833558560000083	shape	0.670454025269	1.0	0.8	n/a	n/a	148.037465811	148.054911852	149.037873983	n/a	circle.bmp	oval-vertical.bmp	oval-vertical.bmp
149.155319929	1.885920048000003	shape	0.672459125519	1.0	0.8	n/a	n/a	151.041239977	151.057917833	152.040968895	n/a	oval-horizontal.bmp	circle.bmp	circle.bmp
152.157670021	1.883087874000012	shape	0.604616165161	1.0	0.8	n/a	n/a	154.040757895	154.056977987	155.040146828	n/a	oval-horizontal.bmp	oval-horizontal.bmp	circle.bmp
158.126148939	1.911952019000012	face	0.832186937332	1.0	0.8	155.125315905	158.03873992	160.038100958	160.055022001	161.037320852	n/a	20M_FE_O.jpg	21M_FE_O.jpg	21M_FE_O.jpg
161.206769943	1.8308849339999824	face	0.952944040298	1.0	0.8	n/a	n/a	163.037654877	163.054092884	164.036680937	n/a	01F_AN_O.jpg	07F_AN_O.jpg	07F_AN_O.jpg
164.170761824	1.86633300699998	face	0.777341842651	1.0	0.8	n/a	n/a	166.037094831	166.05366683	167.036334991	n/a	FFX_139.jpg	FFZ_102.jpg	FFZ_102.jpg
167.202301979	1.8298568730000115	face	1.22177791595	1.0	0.8	n/a	n/a	169.032158852	169.048496962	170.035065889	n/a	23M_AN_O.jpg	23M_AN_O.jpg	22M_AN_O.jpg
170.167272806	1.8683152199999995	face	0.671402931213	1.0	0.8	n/a	n/a	172.035588026	172.052083969	173.034789801	n/a	MAZ_146.jpg	MAZ_146.jpg	MAX_233.jpg
173.201546907	1.83424091400002	face	n/a	0.0	0.8	n/a	n/a	175.035787821	175.051522017	176.034358025	n/a	15F_FE_O.jpg	15F_FE_O.jpg	16F_FE_O.jpg
179.083714962	1.949138880000021	shape	0.804337978363	1.0	0.8	176.115490913	179.032955885	181.032853842	181.049284935	182.031948805	n/a	oval-horizontal.bmp	oval-vertical.bmp	oval-vertical.bmp
182.148689032	1.883385895999993	shape	0.717068910599	1.0	0.8	n/a	n/a	184.032074928	184.048228979	185.031450033	n/a	circle.bmp	oval-vertical.bmp	oval-vertical.bmp
185.164794922	1.8661038870000084	shape	n/a	0.0	0.8	n/a	n/a	187.030898809	187.04765296	188.030131817	n/a	oval-horizontal.bmp	oval-horizontal.bmp	oval-vertical.bmp
188.148021936	1.882349968	shape	0.604512929916	1.0	0.8	n/a	n/a	190.030371904	190.047068834	191.029466867	n/a	oval-horizontal.bmp	oval-horizontal.bmp	circle.bmp
191.146703959	1.8829820149999816	shape	0.655926942825	1.0	0.8	n/a	n/a	193.029685974	193.046267033	194.029153824	n/a	circle.bmp	circle.bmp	oval-vertical.bmp
194.145911932	1.8832609650000047	shape	0.788013935089	1.0	0.8	n/a	n/a	196.029172897	196.045526981	197.028326988	n/a	oval-horizontal.bmp	circle.bmp	circle.bmp
200.110335827	1.933586120000001	face	1.36965298653	1.0	0.8	197.109804869	200.043763876	202.043921947	202.059967995	203.042667866	n/a	FFX_54.jpg	FFX_54.jpg	FAX_51.jpg
203.194797993	1.847158909000001	face	0.936928987503	1.0	0.8	n/a	n/a	205.041956902	205.059160948	206.041394949	n/a	40M_FE_O.BMP	41M_FE_O.jpg	41M_FE_O.jpg
206.202363968	1.83972883200002	face	0.59353685379	1.0	0.8	n/a	n/a	208.0420928	208.058540821	209.035983801	n/a	29M_AN_O.jpg	29M_AN_O.jpg	28M_AN_O.jpg
209.170415878	1.8666059969999933	face	n/a	0.0	0.8	n/a	n/a	211.037021875	211.054471016	212.040380001	n/a	FFZ_18.jpg	FFZ_29.jpg	FFZ_29.jpg
212.207108021	1.8337287899999808	face	0.704976081848	1.0	0.8	n/a	n/a	214.040836811	214.057128906	215.04004693	n/a	19F_AN_O.jpg	19F_AN_O.jpg	09F_AN_O.jpg
215.173261881	1.866546153999991	face	0.736736059189	1.0	0.8	n/a	n/a	217.039808035	217.056959867	218.039198875	n/a	MFZ_132.jpg	MFZ_7.jpg	MFZ_7.jpg
221.088505983	1.949641942999989	shape	0.670091867447	1.0	0.8	218.125644922	221.038049936	223.038147926	223.054205894	224.037014961	n/a	circle.bmp	oval-vertical.bmp	oval-vertical.bmp
224.153532028	1.8834269049999928	shape	0.592356204987	1.0	0.8	n/a	n/a	226.036958933	226.053331852	227.036082029	n/a	oval-horizontal.bmp	oval-horizontal.bmp	circle.bmp
227.163910866	1.8714611529999845	shape	1.17755198479	1.0	0.8	n/a	n/a	229.035372019	229.051957846	230.0298419	n/a	oval-horizontal.bmp	oval-vertical.bmp	oval-vertical.bmp
230.234887838	1.80012798300001	shape	0.705186843872	1.0	0.8	n/a	n/a	232.035015821	232.051844835	233.034375906	n/a	oval-horizontal.bmp	circle.bmp	circle.bmp
233.150410891	1.8834640979999904	shape	0.939262151718	1.0	0.8	n/a	n/a	235.033874989	235.050575018	236.03388381	n/a	oval-horizontal.bmp	oval-horizontal.bmp	oval-vertical.bmp
236.151727915	1.882865905999978	shape	0.638866901398	1.0	0.8	n/a	n/a	238.034593821	238.051039934	239.033420801	n/a	circle.bmp	circle.bmp	oval-vertical.bmp
242.133037806	1.8990571489999863	face	0.936060905457	1.0	0.8	239.12092185	242.030962944	244.032094955	244.048393011	245.030967951	n/a	20M_FE_O.jpg	21M_FE_O.jpg	21M_FE_O.jpg
245.19836092	1.832397938000014	face	n/a	0.0	0.8	n/a	n/a	247.030758858	247.047254801	248.030360937	n/a	07F_AN_O.jpg	07F_AN_O.jpg	01F_AN_O.jpg
248.216183901	1.8140189650000025	face	0.885586977005	1.0	0.8	n/a	n/a	250.030202866	250.046670914	251.041456938	n/a	FFZ_102.jpg	FFZ_102.jpg	FFX_139.jpg
251.214424849	1.8148641579999776	face	0.921656847	1.0	0.8	n/a	n/a	253.029289007	253.044732809	254.028746843	n/a	22M_AN_O.jpg	23M_AN_O.jpg	23M_AN_O.jpg
254.178122997	1.850955010000007	face	0.672600030899	1.0	0.8	n/a	n/a	256.029078007	256.045585871	257.028436899	n/a	MAX_233.jpg	MAZ_146.jpg	MAZ_146.jpg
257.195434809	1.8334569929999704	face	0.835886955261	1.0	0.8	n/a	n/a	259.028891802	259.044767857	260.0272789	n/a	15F_FE_O.jpg	15F_FE_O.jpg	16F_FE_O.jpg
263.093176842	1.9496719830000304	shape	n/a	0.0	0.8	260.117551804	263.04280901	265.042848825	265.059113979	266.041754961	n/a	oval-horizontal.bmp	oval-horizontal.bmp	oval-vertical.bmp
266.167431831	1.8745620249999888	shape	1.32748007774	1.0	0.8	n/a	n/a	268.041993856	268.058678865	269.041119814	n/a	oval-horizontal.bmp	oval-vertical.bmp	oval-vertical.bmp
269.16908288	1.8719179629999871	shape	0.743375062943	1.0	0.8	n/a	n/a	271.041000843	271.057615995	272.036082029	n/a	circle.bmp	circle.bmp	oval-vertical.bmp
272.157335997	1.882994889999964	shape	0.58816409111	1.0	0.8	n/a	n/a	274.040330887	274.056906939	275.039649963	n/a	circle.bmp	oval-vertical.bmp	oval-vertical.bmp
275.172715902	1.867074967000008	shape	0.62322306633	1.0	0.8	n/a	n/a	277.039790869	277.056249857	278.03894186	n/a	oval-horizontal.bmp	circle.bmp	circle.bmp
278.172962904	1.865698099000042	shape	n/a	0.0	0.8	n/a	n/a	280.038661003	280.055667877	281.038276911	n/a	oval-horizontal.bmp	oval-horizontal.bmp	circle.bmp
284.104924917	1.9323670869999887	face	0.770650148392	1.0	0.8	281.127630949	284.036986828	286.037292004	286.053380013	287.036077976	n/a	FFZ_18.jpg	FAZ_129.jpg	FAZ_129.jpg
287.204560995	1.8309960369999767	face	0.816617965698	1.0	0.8	n/a	n/a	289.035557032	289.052218914	290.034366846	n/a	20M_FE_O.jpg	24M_FE_O.jpg	24M_FE_O.jpg
290.202890873	1.8310971259999749	face	n/a	0.0	0.8	n/a	n/a	292.033987999	292.050740957	293.029476881	n/a	FAZ_23.jpg	FAX_25.jpg	FAX_25.jpg
293.213546991	1.820830822000005	face	0.635840892792	1.0	0.8	n/a	n/a	295.034377813	295.051431894	296.034018993	n/a	33M_FE_O.jpg	33M_FE_O.jpg	35M_FE_O.jpg
296.216868877	1.8169379240000008	face	0.739171028137	1.0	0.8	n/a	n/a	298.033806801	298.050302029	299.033303022	n/a	01F_AN_O.jpg	01F_AN_O.jpg	02F_AN_O.jpg
299.183616877	1.849900961000003	face	1.11752820015	1.0	0.8	n/a	n/a	301.033517838	301.049798012	302.032440901	n/a	MFZ_132.jpg	MFZ_132.jpg	MFZ_120.jpg
305.081796885	1.9496181009999989	shape	0.769839048386	1.0	0.8	302.125663996	305.031204939	307.031414986	307.047523975	308.030054808	n/a	oval-horizontal.bmp	oval-vertical.bmp	oval-vertical.bmp
308.164485931	1.8659720420000097	shape	0.569592952728	1.0	0.8	n/a	n/a	310.030457973	310.04603982	311.029575825	n/a	circle.bmp	oval-vertical.bmp	oval-vertical.bmp
311.157191992	1.884037018000015	shape	0.726990938187	1.0	0.8	n/a	n/a	313.04122901	313.057440996	314.041651011	n/a	oval-horizontal.bmp	oval-horizontal.bmp	oval-vertical.bmp
314.176148891	1.852447032999976	shape	0.588451147079	1.0	0.8	n/a	n/a	316.028595924	316.04509902	317.027863979	n/a	oval-horizontal.bmp	oval-horizontal.bmp	circle.bmp
317.160645962	1.867794989999993	shape	0.671782970428	1.0	0.8	n/a	n/a	319.028440952	319.044564009	320.027612925	n/a	circle.bmp	circle.bmp	oval-vertical.bmp
320.161111832	1.8828380100000004	shape	0.786649942398	1.0	0.8	n/a	n/a	322.043949842	322.060719967	323.042984962	n/a	oval-horizontal.bmp	circle.bmp	circle.bmp
326.131680012	1.9103209969999853	face	1.51421308517	0.0	0.8	323.133924961	326.042032957	328.042001009	328.058312893	329.040596962	n/a	17F_FE_O.jpg	18F_FE_O.jpg	18F_FE_O.jpg
329.216634989	1.8236088749999908	face	0.828063964844	1.0	0.8	n/a	n/a	331.040243864	331.056836843	332.034336805	n/a	42M_AN_O.jpg	43M_AN_O.jpg	43M_AN_O.jpg
332.201773882	1.838531971000009	face	0.758119821548	1.0	0.8	n/a	n/a	334.040305853	334.056650877	335.035241842	n/a	31M_FE_O.jpg	31M_FE_O.jpg	32M_FE_O.jpg
335.186329842	1.8531999580000047	face	0.723095178604	1.0	0.8	n/a	n/a	337.0395298	337.056015968	338.038829803	n/a	FAZ_212.jpg	FFZ_236.jpg	FFZ_236.jpg
338.221175909	1.8179650309999715	face	1.05641293526	1.0	0.8	n/a	n/a	340.03914094	340.055224895	341.038292885	n/a	06F_FE_O.jpg	06F_FE_O.jpg	08F_FE_O.jpg
341.188884974	1.8493478290000096	face	1.00272703171	1.0	0.8	n/a	n/a	343.038232803	343.055014849	344.037194967	n/a	MAZ_128.jpg	MAZ_128.jpg	MAX_39.jpg
347.087749004	1.948710919000007	shape	1.21954298019	1.0	0.8	344.128335953	347.035961866	349.036459923	349.052394867	350.035229921	n/a	circle.bmp	oval-vertical.bmp	oval-vertical.bmp
350.168838024	1.8591268059999493	shape	0.578258037567	1.0	0.8	n/a	n/a	352.02796483	352.045225859	353.034461975	n/a	oval-horizontal.bmp	oval-horizontal.bmp	circle.bmp
353.169232845	1.860738039000012	shape	1.55138397217	1.0	0.8	n/a	n/a	355.029970884	355.046365976	356.029667854	n/a	oval-horizontal.bmp	oval-vertical.bmp	oval-vertical.bmp
356.16385293	1.8701829909999788	shape	0.67366194725	1.0	0.8	n/a	n/a	358.034035921	358.050151825	359.032990932	n/a	oval-horizontal.bmp	circle.bmp	circle.bmp
359.16564393	1.8675990110000384	shape	0.754481077194	1.0	0.8	n/a	n/a	361.033242941	361.049798012	362.032421827	n/a	oval-horizontal.bmp	oval-horizontal.bmp	oval-vertical.bmp
362.166910887	1.8656299110000416	shape	0.935980796814	1.0	0.8	n/a	n/a	364.032540798	364.049126863	365.031313896	n/a	circle.bmp	circle.bmp	oval-vertical.bmp
368.098356009	1.9321279520000303	face	1.30352401733	1.0	0.8	365.126927853	368.030297995	370.030483961	370.046569824	371.029564857	n/a	FFZ_18.jpg	FAZ_129.jpg	FAZ_129.jpg
371.206411839	1.823230028000012	face	0.707049131393	1.0	0.8	n/a	n/a	373.029641867	373.046247959	374.028909922	n/a	20M_FE_O.jpg	24M_FE_O.jpg	24M_FE_O.jpg
374.179097891	1.861334084999953	face	n/a	0.0	0.8	n/a	n/a	376.040431976	376.057873011	377.041155815	n/a	FAZ_23.jpg	FAX_25.jpg	FAX_25.jpg
377.210690975	1.833205939000038	face	1.03989005089	1.0	0.8	n/a	n/a	379.043896914	379.060149908	380.027189016	n/a	33M_FE_O.jpg	33M_FE_O.jpg	35M_FE_O.jpg
380.210554838	1.8334920409999995	face	0.738079071045	1.0	0.8	n/a	n/a	382.044046879	382.060541868	383.04363203	n/a	01F_AN_O.jpg	01F_AN_O.jpg	02F_AN_O.jpg
383.195425034	1.8475248810000269	face	1.09948801994	0.0	0.8	n/a	n/a	385.042949915	385.059509993	386.042078972	394.43996501	MFZ_132.jpg	MFZ_132.jpg	MFZ_120.jpg
