onset	duration	trial_type	response_time	accuracy_binarized	tr_seconds	cueStartTime	cueEndTime	trialEndTime	fixStartTime	fixEndTime	runEndTime	stimLeft	stimTop	stimRight
11.13284302	1.9347479300000003	shape	0.80030798912	1.0	0.8	8.074151039	11.06686401	13.06759095	13.09947896	14.09990883	n/a	oval-horizontal.bmp	oval-horizontal.bmp	oval-vertical.bmp
14.19946885	1.9010200499999976	shape	0.600686073303	1.0	0.8	n/a	n/a	16.1004889	16.13280892	17.09993887	n/a	oval-horizontal.bmp	oval-vertical.bmp	oval-vertical.bmp
17.19948292	1.9010229099999985	shape	0.767426013947	1.0	0.8	n/a	n/a	19.10050583	19.13283086	20.09996486	n/a	circle.bmp	circle.bmp	oval-vertical.bmp
20.19948101	1.9010348300000004	shape	0.900584936142	1.0	0.8	n/a	n/a	22.10051584	22.13285995	23.099998	n/a	circle.bmp	oval-vertical.bmp	oval-vertical.bmp
23.19963193	1.90091395	shape	0.633946895599	1.0	0.8	n/a	n/a	25.10054588	25.13287282	26.10001683	n/a	oval-horizontal.bmp	circle.bmp	circle.bmp
26.199543	1.903054000000001	shape	0.667428016663	1.0	0.8	n/a	n/a	28.102597	28.13334084	29.1029439	n/a	oval-horizontal.bmp	oval-horizontal.bmp	circle.bmp
32.1666739	1.935936930000004	face	0.700154066086	1.0	0.8	29.15647888	32.08566999	34.10261083	34.13333893	35.10304093	n/a	FAZ_23.jpg	FAZ_23.jpg	FAX_43.jpg
35.23357201	1.86891198	face	0.932579994202	1.0	0.8	n/a	n/a	37.10248399	37.13324594	38.10288692	n/a	26M_FE_O.jpg	26M_FE_O.jpg	27M_FE_O.BMP
38.21690202	1.8688528500000032	face	0.665715932846	1.0	0.8	n/a	n/a	40.08575487	40.11662602	41.08636093	n/a	MFX_16.jpg	MFZ_50.jpg	MFZ_50.jpg
41.23350787	1.8688771700000049	face	0.699090003967	1.0	0.8	n/a	n/a	43.10238504	43.13335299	44.10296082	n/a	09F_AN_O.jpg	09F_AN_O.jpg	10F_AN_O.jpg
44.233567	1.8688988700000024	face	0.766050100327	1.0	0.8	n/a	n/a	46.10246587	46.13342285	47.10304999	n/a	38M_AN_O.BMP	39M_AN_O.jpg	39M_AN_O.jpg
47.21696782	1.868875029999998	face	1.09920406342	1.0	0.8	n/a	n/a	49.08584285	49.11672902	50.08627391	n/a	FFZ_102.jpg	FFX_130.jpg	FFX_130.jpg
53.16683197	1.9362518800000004	shape	0.700498104095	1.0	0.8	50.14099789	53.10227895	55.10308385	55.13335991	56.10302186	n/a	oval-horizontal.bmp	oval-vertical.bmp	oval-vertical.bmp
56.20019102	1.902675870000003	shape	0.632859945297	1.0	0.8	n/a	n/a	58.10286689	58.13337588	59.10302997	n/a	circle.bmp	oval-vertical.bmp	oval-vertical.bmp
59.20045781	1.902533059999996	shape	1.316711902615	0.0	0.8	n/a	n/a	61.10299087	61.13338685	62.10305405	n/a	oval-horizontal.bmp	oval-horizontal.bmp	oval-vertical.bmp
62.18368101	1.9026579899999945	shape	1.3998260498	1.0	0.8	n/a	n/a	64.086339	64.11672997	65.08639598	n/a	oval-horizontal.bmp	oval-horizontal.bmp	circle.bmp
65.18362594	1.9024670099999952	shape	0.699527025223	1.0	0.8	n/a	n/a	67.08609295	67.11672997	68.08645892	n/a	circle.bmp	circle.bmp	oval-vertical.bmp
68.18363881	1.902709009999996	shape	0.8997879028310001	0.0	0.8	n/a	n/a	70.08634782	70.11678195	71.08646488	n/a	oval-horizontal.bmp	circle.bmp	circle.bmp
74.20026994	1.9023470900000063	face	0.966682910919	1.0	0.8	71.13579297	74.10246181	76.10261703	76.13359189	77.10326099	n/a	03F_FE_O.jpg	05F_FE_O.jpg	05F_FE_O.jpg
77.21699882	1.868843069999997	face	0.932744979858	1.0	0.8	n/a	n/a	79.08584189	79.11689687	80.08661985	n/a	FAZ_32.jpg	FAZ_32.jpg	FAX_45.jpg
80.20042491	1.9025011100000029	face	1.16581606865	0.0	0.8	n/a	n/a	82.10292602	82.1336	83.10325193	n/a	MAZ_128.jpg	MAZ_101.jpg	MAZ_101.jpg
83.23378897	1.8685860599999984	face	1.36608409882	1.0	0.8	n/a	n/a	85.10237503	85.13351583	86.10334492	n/a	11F_AN_O.jpg	11F_AN_O.jpg	12F_AN_O.jpg
86.25039792	1.8357210200000085	face	0.766089916229	1.0	0.8	n/a	n/a	88.08611894	88.11692786	89.08669591	n/a	26M_FE_O.jpg	33M_FE_O.jpg	33M_FE_O.jpg
89.20042586	1.9019351000000029	face	1.26603507996	1.0	0.8	n/a	n/a	91.10236096	91.13370204	92.10339284	n/a	MFZ_132.jpg	MFZ_132.jpg	MFZ_120.jpg
95.13377595	1.9694099400000056	shape	0.70039999485	0.0	0.8	92.15955186	95.08592391	97.10318589	97.1336	98.10330391	n/a	circle.bmp	oval-vertical.bmp	oval-vertical.bmp
98.20076394	1.902585959999996	shape	1.13309502602	1.0	0.8	n/a	n/a	100.1033499	100.133755	101.070147	n/a	oval-horizontal.bmp	oval-horizontal.bmp	circle.bmp
101.16713	1.936005800000004	shape	0.832934856415	1.0	0.8	n/a	n/a	103.1031358	103.1336849	104.0701759	n/a	oval-horizontal.bmp	oval-vertical.bmp	oval-vertical.bmp
104.167182	1.936179800000005	shape	0.866147994995	1.0	0.8	n/a	n/a	106.1033618	106.133805	107.1034529	n/a	oval-horizontal.bmp	circle.bmp	circle.bmp
107.2007809	1.9023229999999955	shape	n/a	0.0	0.8	n/a	n/a	109.1031039	109.133682	110.0701358	n/a	oval-horizontal.bmp	oval-horizontal.bmp	oval-vertical.bmp
110.167274	1.936084999999992	shape	0.799491167068	1.0	0.8	n/a	n/a	112.103359	112.1337669	113.0702438	n/a	circle.bmp	circle.bmp	oval-vertical.bmp
116.1672769	1.93582099999999	face	1.86694478989	1.0	0.8	113.1292889	116.086221	118.1030979	118.133858	119.070224	n/a	FAZ_23.jpg	FAZ_23.jpg	FAX_43.jpg
119.2175629	1.8683209999999943	face	0.932853937149	1.0	0.8	n/a	n/a	121.0858839	121.1171269	122.0869188	n/a	26M_FE_O.jpg	26M_FE_O.jpg	27M_FE_O.BMP
122.217432	1.8690249999999933	face	1.13280105591	1.0	0.8	n/a	n/a	124.086457	124.1172159	125.0867739	n/a	MFZ_50.jpg	MFZ_50.jpg	MFX_16.jpg
125.2174408	1.8687090999999896	face	0.699253797531	1.0	0.8	n/a	n/a	127.0861499	127.1171548	128.0868299	n/a	10F_AN_O.jpg	09F_AN_O.jpg	09F_AN_O.jpg
128.217308	1.869148999999993	face	0.532884120941	1.0	0.8	n/a	n/a	130.086457	130.117224	131.0869489	n/a	38M_AN_O.BMP	39M_AN_O.jpg	39M_AN_O.jpg
131.2174358	1.8690162000000043	face	0.899399995804	1.0	0.8	n/a	n/a	133.086452	133.1172359	134.0869758	n/a	FFZ_102.jpg	FFX_130.jpg	FFX_130.jpg
137.167393	1.936205799999982	shape	0.60036110878	1.0	0.8	134.1457789	137.102994	139.1035988	139.1340189	140.070343	n/a	oval-horizontal.bmp	oval-horizontal.bmp	oval-vertical.bmp
140.167434	1.935931900000014	shape	0.933182954788	1.0	0.8	n/a	n/a	142.1033659	142.1338589	143.0704079	n/a	oval-horizontal.bmp	oval-vertical.bmp	oval-vertical.bmp
143.167496	1.9360320000000115	shape	0.833194971085	1.0	0.8	n/a	n/a	145.103528	145.134027	146.0702839	n/a	circle.bmp	circle.bmp	oval-vertical.bmp
146.1675479	1.9360531000000087	shape	0.766715049744	1.0	0.8	n/a	n/a	148.103601	148.1339619	149.0703008	n/a	circle.bmp	oval-vertical.bmp	oval-vertical.bmp
149.1675999	1.9359970000000144	shape	1.23337101936	1.0	0.8	n/a	n/a	151.1035969	151.133985	152.0703418	n/a	oval-horizontal.bmp	circle.bmp	circle.bmp
152.1675529	1.93616990000001	shape	1.06657195091	1.0	0.8	n/a	n/a	154.1037228	154.1341119	155.0704858	n/a	oval-horizontal.bmp	oval-horizontal.bmp	circle.bmp
158.1843269	1.9018440000000112	face	1.20021295547	0.0	0.8	155.1300669	158.0865459	160.0861709	160.117569	161.0869949	n/a	20M_FE_O.jpg	21M_FE_O.jpg	21M_FE_O.jpg
161.217603	1.869119900000016	face	0.865906953812	1.0	0.8	n/a	n/a	163.0867229	163.117449	164.087204	n/a	01F_AN_O.jpg	07F_AN_O.jpg	07F_AN_O.jpg
164.2176139	1.868819000000002	face	0.766424179077	1.0	0.8	n/a	n/a	166.0864329	166.117537	167.0871298	n/a	FFX_139.jpg	FFZ_102.jpg	FFZ_102.jpg
167.2177708	1.8689629999999795	face	0.999354124069	1.0	0.8	n/a	n/a	169.0867338	169.1175499	170.087229	n/a	23M_AN_O.jpg	23M_AN_O.jpg	22M_AN_O.jpg
170.2011559	1.9021180000000013	face	0.798942089081	1.0	0.8	n/a	n/a	172.1032739	172.1342359	173.070611	n/a	MAZ_146.jpg	MAZ_146.jpg	MAX_233.jpg
173.217694	1.8690889000000084	face	0.666287899017	1.0	0.8	n/a	n/a	175.0867829	175.117578	176.087311	n/a	15F_FE_O.jpg	15F_FE_O.jpg	16F_FE_O.jpg
179.1682799	1.9358251000000168	shape	1.03376412392	1.0	0.8	176.1457839	179.1032639	181.104105	181.1342008	182.0706439	n/a	oval-horizontal.bmp	oval-vertical.bmp	oval-vertical.bmp
182.167763	1.9361109999999824	shape	0.766242027283	1.0	0.8	n/a	n/a	184.103874	184.134321	185.0705669	n/a	circle.bmp	oval-vertical.bmp	oval-vertical.bmp
185.167731	1.9031009999999924	shape	1.10006785393	1.0	0.8	n/a	n/a	187.070832	187.101007	188.070523	n/a	oval-horizontal.bmp	oval-horizontal.bmp	oval-vertical.bmp
188.1678669	1.93609189999998	shape	0.566671848297	1.0	0.8	n/a	n/a	190.1039588	190.134269	191.070791	n/a	oval-horizontal.bmp	oval-horizontal.bmp	circle.bmp
191.1676469	1.936255000000017	shape	0.666136980057	1.0	0.8	n/a	n/a	193.1039019	193.134325	194.0705919	n/a	circle.bmp	circle.bmp	oval-vertical.bmp
194.1678178	1.936144100000007	shape	0.699975967407	1.0	0.8	n/a	n/a	196.1039619	196.134347	197.070874	n/a	oval-horizontal.bmp	circle.bmp	circle.bmp
200.1677239	1.935954100000004	face	0.832984924316	1.0	0.8	197.131978	200.0867889	202.103678	202.134315	203.0707538	n/a	FFX_54.jpg	FFX_54.jpg	FAX_51.jpg
203.218076	1.868924800000002	face	0.766033887863	1.0	0.8	n/a	n/a	205.0870008	205.1177819	206.0873508	n/a	40M_FE_O.BMP	41M_FE_O.jpg	41M_FE_O.jpg
206.2346709	1.8684411000000123	face	0.732400894165	1.0	0.8	n/a	n/a	208.103112	208.1343498	209.070807	n/a	29M_AN_O.jpg	29M_AN_O.jpg	28M_AN_O.jpg
209.1848059	1.9022441000000183	face	0.632655143738	1.0	0.8	n/a	n/a	211.08705	211.1177108	212.0874059	n/a	FFZ_18.jpg	FFZ_29.jpg	FFZ_29.jpg
212.2348909	1.868321899999984	face	1.16612887383	1.0	0.8	n/a	n/a	214.1032128	214.1346169	215.0707619	n/a	19F_AN_O.jpg	19F_AN_O.jpg	09F_AN_O.jpg
215.184582	1.901954899999993	face	1.06611418724	1.0	0.8	n/a	n/a	217.0865369	217.1178679	218.0874419	n/a	MFZ_132.jpg	MFZ_7.jpg	MFZ_7.jpg
221.1179199	1.9698240999999823	shape	0.667500019073	1.0	0.8	218.1404898	221.0701189	223.087744	223.1177828	224.0876279	n/a	circle.bmp	oval-vertical.bmp	oval-vertical.bmp
224.184648	1.9026369999999984	shape	1.09997487068	1.0	0.8	n/a	n/a	226.087285	226.1179349	227.0876329	n/a	oval-horizontal.bmp	oval-horizontal.bmp	circle.bmp
227.1846709	1.9029620000000025	shape	1.29956507683	1.0	0.8	n/a	n/a	229.0876329	229.1179478	230.087667	n/a	oval-horizontal.bmp	oval-vertical.bmp	oval-vertical.bmp
230.1846309	1.9029950999999985	shape	0.899814128876	1.0	0.8	n/a	n/a	232.087626	232.1179059	233.087672	n/a	oval-horizontal.bmp	circle.bmp	circle.bmp
233.184629	1.903063000000003	shape	0.8499155044564999	0.0	0.8	n/a	n/a	235.087692	235.1179159	236.0877039	n/a	oval-horizontal.bmp	oval-horizontal.bmp	oval-vertical.bmp
236.1846499	1.9029829999999777	shape	0.633040904999	1.0	0.8	n/a	n/a	238.0876329	238.1180079	239.0877628	n/a	circle.bmp	circle.bmp	oval-vertical.bmp
242.168227	1.9025099000000123	face	1.43357586861	1.0	0.8	239.149785	242.07041	244.0707369	244.101347	245.070996	n/a	20M_FE_O.jpg	21M_FE_O.jpg	21M_FE_O.jpg
245.218189	1.869056900000004	face	0.799299001694	1.0	0.8	n/a	n/a	247.0872459	247.118098	248.0876629	n/a	07F_AN_O.jpg	07F_AN_O.jpg	01F_AN_O.jpg
248.2181299	1.8690521000000049	face	1.03265810013	1.0	0.8	n/a	n/a	250.087182	250.118108	251.0876849	n/a	FFZ_102.jpg	FFZ_102.jpg	FFX_139.jpg
251.235044	1.8688350000000185	face	1.46607995033	1.0	0.8	n/a	n/a	253.103879	253.134784	254.0711479	n/a	22M_AN_O.jpg	23M_AN_O.jpg	23M_AN_O.jpg
254.1849298	1.9025331	face	0.699468135834	1.0	0.8	n/a	n/a	256.0874629	256.11812	257.0878329	n/a	MAX_233.jpg	MAZ_146.jpg	MAZ_146.jpg
257.2350528	1.8685112000000004	face	0.999287128448	1.0	0.8	n/a	n/a	259.103564	259.134614	260.0710819	n/a	15F_FE_O.jpg	15F_FE_O.jpg	16F_FE_O.jpg
263.1521239	1.936007099999984	shape	1.3005900383	1.0	0.8	260.1308548	263.087172	265.088131	265.1180949	266.0878348	n/a	oval-horizontal.bmp	oval-horizontal.bmp	oval-vertical.bmp
266.2015629	1.869410000000016	shape	1.26657485962	1.0	0.8	n/a	n/a	268.0709729	268.1013958	269.0711639	n/a	oval-horizontal.bmp	oval-vertical.bmp	oval-vertical.bmp
269.1682348	1.902762199999984	shape	0.699862003326	1.0	0.8	n/a	n/a	271.070997	271.101526	272.0711958	n/a	circle.bmp	circle.bmp	oval-vertical.bmp
272.1682589	1.902800099999979	shape	0.766516923904	1.0	0.8	n/a	n/a	274.071059	274.101635	275.0712118	n/a	circle.bmp	oval-vertical.bmp	oval-vertical.bmp
275.168267	1.9023899999999685	shape	1.06645393372	1.0	0.8	n/a	n/a	277.070657	277.10167	278.071244	n/a	oval-horizontal.bmp	circle.bmp	circle.bmp
278.1682398	1.9026161000000457	shape	0.79958319664	1.0	0.8	n/a	n/a	280.0708559	280.1016929	281.0712669	n/a	oval-horizontal.bmp	oval-horizontal.bmp	circle.bmp
284.134907	1.9359698000000087	face	0.63344502449	1.0	0.8	281.1338139	284.070488	286.0708768	286.1016259	287.0712669	n/a	FFZ_18.jpg	FAZ_129.jpg	FAZ_129.jpg
287.21857	1.8689668000000097	face	0.96591091156	1.0	0.8	n/a	n/a	289.0875368	289.118191	290.0880389	n/a	20M_FE_O.jpg	24M_FE_O.jpg	24M_FE_O.jpg
290.2186599	1.8689410000000064	face	0.766314029694	1.0	0.8	n/a	n/a	292.0876009	292.1183	293.0880718	n/a	FAZ_23.jpg	FAX_25.jpg	FAX_25.jpg
293.235182	1.835122899999988	face	0.79910993576	1.0	0.8	n/a	n/a	295.0703049	295.101928	296.071228	n/a	33M_FE_O.jpg	33M_FE_O.jpg	35M_FE_O.jpg
296.2184498	1.869193100000018	face	1.0325551033	1.0	0.8	n/a	n/a	298.0876429	298.1184139	299.088068	n/a	01F_AN_O.jpg	01F_AN_O.jpg	02F_AN_O.jpg
299.2186239	1.8688220999999885	face	0.832437992096	1.0	0.8	n/a	n/a	301.087446	301.118299	302.0881028	n/a	MFZ_132.jpg	MFZ_132.jpg	MFZ_120.jpg
305.1519139	1.9365629999999785	shape	0.63383102417	1.0	0.8	302.1519759	305.087482	307.0884769	307.118396	308.0882709	n/a	oval-horizontal.bmp	oval-vertical.bmp	oval-vertical.bmp
308.201993	1.8693139000000087	shape	0.533243894577	1.0	0.8	n/a	n/a	310.0713069	310.1017849	311.0714619	n/a	circle.bmp	oval-vertical.bmp	oval-vertical.bmp
311.185395	1.902840899999944	shape	0.799981117249	1.0	0.8	n/a	n/a	313.0882359	313.1185188	314.0882189	n/a	oval-horizontal.bmp	oval-horizontal.bmp	oval-vertical.bmp
314.2020619	1.869293000000028	shape	1.09980511665	1.0	0.8	n/a	n/a	316.0713549	316.101826	317.0713289	n/a	oval-horizontal.bmp	oval-horizontal.bmp	circle.bmp
317.16852	1.90240399999999	shape	0.666344881058	1.0	0.8	n/a	n/a	319.070924	319.1019039	320.0713499	n/a	circle.bmp	circle.bmp	oval-vertical.bmp
320.1685989	1.902404999999988	shape	0.799664974213	1.0	0.8	n/a	n/a	322.0710039	322.101758	323.0713608	n/a	oval-horizontal.bmp	circle.bmp	circle.bmp
326.185353	1.9027949000000035	face	1.1665019989	1.0	0.8	323.1272938	326.0875649	328.0881479	328.118541	329.0881739	n/a	17F_FE_O.jpg	18F_FE_O.jpg	18F_FE_O.jpg
329.2353129	1.8352871000000164	face	0.666052103043	1.0	0.8	n/a	n/a	331.0706	331.102051	332.0715039	n/a	42M_AN_O.jpg	43M_AN_O.jpg	43M_AN_O.jpg
332.2186918	1.8691661999999951	face	1.56570100784	0.0	0.8	n/a	n/a	334.087858	334.118706	335.0881939	n/a	31M_FE_O.jpg	31M_FE_O.jpg	32M_FE_O.jpg
335.219065	1.8684930000000008	face	0.73282289505	1.0	0.8	n/a	n/a	337.087558	337.118474	338.0883229	n/a	FAZ_212.jpg	FFZ_236.jpg	FFZ_236.jpg
338.2354519	1.835187000000019	face	1.23242211342	1.0	0.8	n/a	n/a	340.0706389	340.1018579	341.0715358	n/a	06F_FE_O.jpg	06F_FE_O.jpg	08F_FE_O.jpg
341.185426	1.902144899999996	face	0.699102878571	1.0	0.8	n/a	n/a	343.0875709	343.1187119	344.0884109	n/a	MAZ_128.jpg	MAZ_128.jpg	MAX_39.jpg
347.1354718	1.9363109999999888	shape	0.700517892838	1.0	0.8	344.153487	347.0875969	349.0717828	349.1019368	350.0716438	n/a	circle.bmp	oval-vertical.bmp	oval-vertical.bmp
350.1687489	1.902923099999953	shape	0.533254861832	1.0	0.8	n/a	n/a	352.071672	352.101984	353.0717499	n/a	oval-horizontal.bmp	oval-horizontal.bmp	circle.bmp
353.185447	1.902841999999964	shape	0.599988937378	1.0	0.8	n/a	n/a	355.088289	355.1186578	356.088275	n/a	oval-horizontal.bmp	oval-vertical.bmp	oval-vertical.bmp
356.185545	1.9027059000000008	shape	0.799892187119	1.0	0.8	n/a	n/a	358.0882509	358.118633	359.0883	n/a	oval-horizontal.bmp	circle.bmp	circle.bmp
359.1855199	1.9026051000000168	shape	0.666521072388	1.0	0.8	n/a	n/a	361.088125	361.118732	362.0883288	n/a	oval-horizontal.bmp	oval-horizontal.bmp	oval-vertical.bmp
362.185575	1.9029520000000275	shape	0.599786043167	1.0	0.8	n/a	n/a	364.088527	364.118789	365.0883338	n/a	circle.bmp	circle.bmp	oval-vertical.bmp
368.1522019	1.9353520999999887	face	1.43311810493	1.0	0.8	365.146143	368.071089	370.087554	370.118912	371.0883498	n/a	FFZ_18.jpg	FAZ_129.jpg	FAZ_129.jpg
371.235744	1.8354658999999744	face	1.33238101006	1.0	0.8	n/a	n/a	373.0712099	373.1021659	374.0717468	n/a	20M_FE_O.jpg	24M_FE_O.jpg	24M_FE_O.jpg
374.185591	1.9022487999999955	face	0.665766000748	1.0	0.8	n/a	n/a	376.0878398	376.1187809	377.0884168	n/a	FAZ_23.jpg	FAX_25.jpg	FAX_25.jpg
377.235713	1.83554700000002	face	0.766138076782	1.0	0.8	n/a	n/a	379.07126	379.1021559	380.0718009	n/a	33M_FE_O.jpg	33M_FE_O.jpg	35M_FE_O.jpg
380.2189519	1.869164000000012	face	0.699297904968	1.0	0.8	n/a	n/a	382.0881159	382.1189849	383.0885198	n/a	01F_AN_O.jpg	01F_AN_O.jpg	02F_AN_O.jpg
383.219111	1.8689989999999737	face	0.766356945038	1.0	0.8	n/a	n/a	385.08811	385.1188929	386.0885899	394.4886289	MFZ_132.jpg	MFZ_132.jpg	MFZ_120.jpg
