onset	duration	trial_type	response_time	accuracy_binarized	tr_seconds	cueStartTime	cueEndTime	trialEndTime	fixStartTime	fixEndTime	runEndTime	stimLeft	stimTop	stimRight
11.0823850632	1.9429831505	shape	1.16453099251	0.0	0.8	8.02182602882	11.0101702213	13.0253682137	13.0438661575	14.0255041122	n/a	oval-horizontal.bmp	oval-horizontal.bmp	oval-vertical.bmp
14.161260128	1.8636779784999984	shape	1.18649196625	0.0	0.8	n/a	n/a	16.0249381065	16.0424721241	17.0243110657	n/a	oval-horizontal.bmp	oval-vertical.bmp	oval-vertical.bmp
17.1429080963	1.8814439774	shape	1.27651381493	0.0	0.8	n/a	n/a	19.0243520737	19.0418372154	20.0227460861	n/a	circle.bmp	circle.bmp	oval-vertical.bmp
20.1354591846	1.887655973500003	shape	0.758704900742	0.0	0.8	n/a	n/a	22.0231151581	22.0413160324	23.0219089985	n/a	circle.bmp	oval-vertical.bmp	oval-vertical.bmp
23.1376290321	1.8828339576999973	shape	0.736373901367	0.0	0.8	n/a	n/a	25.0204629898	25.0381162167	26.0222229958	n/a	oval-horizontal.bmp	circle.bmp	circle.bmp
26.1394081116	1.881454944599998	shape	n/a	0.0	0.8	n/a	n/a	28.0208630562	28.0401511192	29.0213630199	n/a	oval-horizontal.bmp	oval-horizontal.bmp	circle.bmp
32.0897350311	1.929656028800004	face	n/a	0.0	0.8	29.0980470181	32.019162178	34.0193910599	34.0378642082	35.0189781189	n/a	FAZ_23.jpg	FAZ_23.jpg	FAX_43.jpg
35.1771821976	1.8416919708	face	n/a	0.0	0.8	n/a	n/a	37.0188741684	37.0369381905	38.0178890228	n/a	26M_FE_O.jpg	26M_FE_O.jpg	27M_FE_O.BMP
38.1541991234	1.864067077600005	face	n/a	0.0	0.8	n/a	n/a	40.018266201	40.0362370014	41.017373085	n/a	MFX_16.jpg	MFZ_50.jpg	MFZ_50.jpg
41.1860921383	1.8312590122000003	face	0.807787895203	0.0	0.8	n/a	n/a	43.0173511505	43.0348031521	44.0168540478	n/a	09F_AN_O.jpg	09F_AN_O.jpg	10F_AN_O.jpg
44.1817071438	1.8490419388000063	face	0.772775173187	0.0	0.8	n/a	n/a	46.0307490826	46.0483560562	47.0301320553	n/a	38M_AN_O.BMP	39M_AN_O.jpg	39M_AN_O.jpg
47.1666331291	1.865473032000004	face	0.986654043198	0.0	0.8	n/a	n/a	49.0321061611	49.050358057	50.0312421322	n/a	FFZ_102.jpg	FFX_130.jpg	FFX_130.jpg
53.0838730335	1.9469330311000024	shape	0.819993972778	0.0	0.8	50.1084680557	53.030465126	55.0308060646	55.0484220982	56.029350996	n/a	oval-horizontal.bmp	oval-vertical.bmp	oval-vertical.bmp
56.1482861042	1.881447076800001	shape	0.753075122833	0.0	0.8	n/a	n/a	58.029733181	58.047134161	59.0207231045	n/a	circle.bmp	oval-vertical.bmp	oval-vertical.bmp
59.1393589973	1.8819050788999967	shape	0.909003973007	0.0	0.8	n/a	n/a	61.0212640762	61.0398402214	62.0299751759	n/a	oval-horizontal.bmp	oval-horizontal.bmp	oval-vertical.bmp
62.1460850239	1.8839759826000064	shape	1.00853300095	0.0	0.8	n/a	n/a	64.0300610065	64.0448470116	65.0288481712	n/a	oval-horizontal.bmp	oval-horizontal.bmp	circle.bmp
65.1455512047	1.8792059421000005	shape	0.987128973007	0.0	0.8	n/a	n/a	67.0247571468	67.0434060097	68.0263371468	n/a	circle.bmp	circle.bmp	oval-vertical.bmp
68.1444971561	1.8819499015999952	shape	1.20415496826	0.0	0.8	n/a	n/a	70.0264470577	70.0444099903	71.0261871815	n/a	oval-horizontal.bmp	circle.bmp	circle.bmp
74.1268510818	1.8972971440000064	face	n/a	0.0	0.8	71.1096351147	74.0244441032	76.0241482258	76.042039156	77.0236711502	n/a	03F_FE_O.jpg	05F_FE_O.jpg	05F_FE_O.jpg
77.1591660976	1.8644840718000069	face	0.836319923401	0.0	0.8	n/a	n/a	79.0236501694	79.0410790443	80.0225222111	n/a	FAZ_32.jpg	FAZ_32.jpg	FAX_45.jpg
80.1667351723	1.8560390472	face	1.12683796883	0.0	0.8	n/a	n/a	82.0227742195	82.0398921967	83.0219352245	n/a	MAZ_128.jpg	MAZ_101.jpg	MAZ_101.jpg
83.1842930317	1.8369519710000048	face	1.24149990082	0.0	0.8	n/a	n/a	85.0212450027	85.0390861034	86.0348842144	n/a	11F_AN_O.jpg	11F_AN_O.jpg	12F_AN_O.jpg
86.2029130459	1.816231012299994	face	1.08743596077	0.0	0.8	n/a	n/a	88.0191440582	88.0367650986	89.0199010372	n/a	26M_FE_O.jpg	33M_FE_O.jpg	33M_FE_O.jpg
89.1716060638	1.8490920067000047	face	1.25378084183	0.0	0.8	n/a	n/a	91.0206980705	91.038629055	92.0198051929	n/a	MFZ_132.jpg	MFZ_132.jpg	MFZ_120.jpg
95.0748860836	1.942584037799989	shape	n/a	0.0	0.8	92.1094141006	95.0189270973	97.0174701214	97.0363981724	98.0173652172	n/a	circle.bmp	oval-vertical.bmp	oval-vertical.bmp
98.1528890133	1.864415168700006	shape	n/a	0.0	0.8	n/a	n/a	100.017304182	100.034450054	101.016937017	n/a	oval-horizontal.bmp	oval-horizontal.bmp	circle.bmp
101.144964218	1.888243914	shape	1.72438693047	0.0	0.8	n/a	n/a	103.033208132	103.050275087	104.032489061	n/a	oval-horizontal.bmp	oval-vertical.bmp	oval-vertical.bmp
104.163353205	1.864404915999998	shape	0.889287948608	0.0	0.8	n/a	n/a	106.027758121	106.046127081	107.028437138	n/a	oval-horizontal.bmp	circle.bmp	circle.bmp
107.163946152	1.8677010530000049	shape	0.750758171082	0.0	0.8	n/a	n/a	109.031647205	109.049409151	110.031208038	n/a	oval-horizontal.bmp	oval-horizontal.bmp	oval-vertical.bmp
110.165830135	1.8642659190000048	shape	0.938118934631	0.0	0.8	n/a	n/a	112.030096054	112.04868412	113.029770136	n/a	circle.bmp	circle.bmp	oval-vertical.bmp
116.09794116	1.9313390259999887	face	0.916855096817	0.0	0.8	113.117537022	116.029415131	118.029280186	118.04637599	119.028024197	n/a	FAZ_23.jpg	FAZ_23.jpg	FAX_43.jpg
119.186176062	1.841784000000004	face	0.946877002716	0.0	0.8	n/a	n/a	121.027960062	121.045832157	122.02733016	n/a	26M_FE_O.jpg	26M_FE_O.jpg	27M_FE_O.BMP
122.17970109	1.847041130000008	face	n/a	0.0	0.8	n/a	n/a	124.02674222	124.04471302	125.026285172	n/a	MFZ_50.jpg	MFZ_50.jpg	MFX_16.jpg
125.194932222	1.8273878099999905	face	n/a	0.0	0.8	n/a	n/a	127.022320032	127.039945126	128.022283077	n/a	10F_AN_O.jpg	09F_AN_O.jpg	09F_AN_O.jpg
128.191572189	1.834183932000002	face	0.652573823929	0.0	0.8	n/a	n/a	130.025756121	130.043505192	131.024893045	n/a	38M_AN_O.BMP	39M_AN_O.jpg	39M_AN_O.jpg
131.176418066	1.848353148000001	face	0.969331026077	0.0	0.8	n/a	n/a	133.024771214	133.043051004	134.024047136	n/a	FFZ_102.jpg	FFX_130.jpg	FFX_130.jpg
137.075470209	1.9471728800000108	shape	0.784435987473	0.0	0.8	134.111144066	137.023491144	139.022643089	139.039805174	140.022229195	n/a	oval-horizontal.bmp	oval-horizontal.bmp	oval-vertical.bmp
140.140673161	1.881401062000009	shape	n/a	0.0	0.8	n/a	n/a	142.022074223	142.039631128	143.020586014	n/a	oval-horizontal.bmp	oval-vertical.bmp	oval-vertical.bmp
143.140026093	1.8807780740000053	shape	0.877408981323	0.0	0.8	n/a	n/a	145.020804167	145.038655043	146.020354033	n/a	circle.bmp	circle.bmp	oval-vertical.bmp
146.138733149	1.894341945000008	shape	0.787305831909	0.0	0.8	n/a	n/a	148.033075094	148.051307201	149.032662153	n/a	circle.bmp	oval-vertical.bmp	oval-vertical.bmp
149.154588223	1.864966869	shape	0.835874795914	0.0	0.8	n/a	n/a	151.019555092	151.036666155	152.018748045	n/a	oval-horizontal.bmp	circle.bmp	circle.bmp
152.153829098	1.864444971000012	shape	1.1338031292	1.0	0.8	n/a	n/a	154.018274069	154.036758184	155.017494202	n/a	oval-horizontal.bmp	oval-horizontal.bmp	circle.bmp
158.119162083	1.914113044000004	face	n/a	0.0	0.8	155.105159044	158.032824039	160.033275127	160.050240993	161.032711029	n/a	20M_FE_O.jpg	21M_FE_O.jpg	21M_FE_O.jpg
161.20820117	1.8246328829999925	face	n/a	0.0	0.8	n/a	n/a	163.032834053	163.049919128	164.031905174	n/a	01F_AN_O.jpg	07F_AN_O.jpg	07F_AN_O.jpg
164.177185059	1.8539199829999973	face	0.776071071625	0.0	0.8	n/a	n/a	166.031105042	166.049298048	167.030835152	n/a	FFX_139.jpg	FFZ_102.jpg	FFZ_102.jpg
167.194898129	1.8359150880000072	face	0.774920940399	1.0	0.8	n/a	n/a	169.030813217	169.048221111	170.026814222	n/a	23M_AN_O.jpg	23M_AN_O.jpg	22M_AN_O.jpg
170.179659128	1.850463867000002	face	0.769490003586	0.0	0.8	n/a	n/a	172.030122995	172.048061132	173.028825998	n/a	MAZ_146.jpg	MAZ_146.jpg	MAX_233.jpg
173.198134184	1.831004858	face	1.51989483833	1.0	0.8	n/a	n/a	175.029139042	175.047078133	176.028694153	n/a	15F_FE_O.jpg	15F_FE_O.jpg	16F_FE_O.jpg
179.079143047	1.9483850009999912	shape	0.752429962158	0.0	0.8	176.114598036	179.027362108	181.027528048	181.044703007	182.025676012	n/a	oval-horizontal.bmp	oval-vertical.bmp	oval-vertical.bmp
182.152296066	1.873916148999996	shape	0.662317991257	0.0	0.8	n/a	n/a	184.026212215	184.044329166	185.025520086	n/a	circle.bmp	oval-vertical.bmp	oval-vertical.bmp
185.153091192	1.8725478650000007	shape	0.743322849274	0.0	0.8	n/a	n/a	187.025639057	187.04285121	188.024411201	n/a	oval-horizontal.bmp	oval-horizontal.bmp	oval-vertical.bmp
188.155016184	1.8657169340000053	shape	0.903847932816	0.0	0.8	n/a	n/a	190.020733118	190.038894176	191.021220207	n/a	oval-horizontal.bmp	oval-horizontal.bmp	circle.bmp
191.157082081	1.8663260939999875	shape	1.18821406364	0.0	0.8	n/a	n/a	193.023408175	193.042083025	194.023848057	n/a	circle.bmp	circle.bmp	oval-vertical.bmp
194.158743143	1.864278077999984	shape	0.752451896667	0.0	0.8	n/a	n/a	196.023021221	196.040927172	197.021687031	n/a	oval-horizontal.bmp	circle.bmp	circle.bmp
200.090544224	1.930906771999986	face	0.885756969452	0.0	0.8	197.109857082	200.020681143	202.021450996	202.038931131	203.020245075	n/a	FFX_54.jpg	FFX_54.jpg	FAX_51.jpg
203.180398226	1.8396217819999947	face	1.21078300476	0.0	0.8	n/a	n/a	205.020020008	205.037870169	206.020043135	n/a	40M_FE_O.BMP	41M_FE_O.jpg	41M_FE_O.jpg
206.18769908	1.8313231460000168	face	1.14326715469	0.0	0.8	n/a	n/a	208.019022226	208.036544085	209.018918991	n/a	29M_AN_O.jpg	29M_AN_O.jpg	28M_AN_O.jpg
209.170095205	1.8619828230000053	face	0.936342954636	0.0	0.8	n/a	n/a	211.032078028	211.049237013	212.031658173	n/a	FFZ_18.jpg	FFZ_29.jpg	FFZ_29.jpg
212.217849016	1.8001360899999952	face	0.954715013504	0.0	0.8	n/a	n/a	214.017985106	214.035998106	215.016998053	n/a	19F_AN_O.jpg	19F_AN_O.jpg	09F_AN_O.jpg
215.170158148	1.846974849999981	face	n/a	0.0	0.8	n/a	n/a	217.017132998	217.034702063	218.032572031	n/a	MFZ_132.jpg	MFZ_7.jpg	MFZ_7.jpg
221.08358717	1.9475948810000148	shape	n/a	0.0	0.8	218.126252174	221.032011032	223.031182051	223.049302101	224.030296087	n/a	circle.bmp	oval-vertical.bmp	oval-vertical.bmp
224.156920195	1.874104023000001	shape	0.612371206284	0.0	0.8	n/a	n/a	226.031024218	226.048502207	227.030162096	n/a	oval-horizontal.bmp	oval-horizontal.bmp	circle.bmp
227.159008026	1.8713212010000009	shape	0.892343997955	0.0	0.8	n/a	n/a	229.030329227	229.048069	230.029240131	n/a	oval-horizontal.bmp	oval-vertical.bmp	oval-vertical.bmp
230.160331011	1.8653120989999927	shape	0.786296129227	0.0	0.8	n/a	n/a	232.02564311	232.044449091	233.026826143	n/a	oval-horizontal.bmp	circle.bmp	circle.bmp
233.162219048	1.865976095000008	shape	0.638458013535	0.0	0.8	n/a	n/a	235.028195143	235.046342134	236.027016163	n/a	oval-horizontal.bmp	oval-horizontal.bmp	oval-vertical.bmp
236.163266182	1.863698959000004	shape	0.769175052643	0.0	0.8	n/a	n/a	238.026965141	238.045295	239.027173042	n/a	circle.bmp	circle.bmp	oval-vertical.bmp
242.111308098	1.914109945000007	face	n/a	0.0	0.8	239.121733189	242.02553916	244.025418043	244.043134212	245.025025129	n/a	20M_FE_O.jpg	21M_FE_O.jpg	21M_FE_O.jpg
245.193584204	1.8303859230000228	face	n/a	0.0	0.8	n/a	n/a	247.023970127	247.042414188	248.023363113	n/a	07F_AN_O.jpg	07F_AN_O.jpg	01F_AN_O.jpg
248.177172184	1.846705914000012	face	0.740633010864	0.0	0.8	n/a	n/a	250.023878098	250.041000128	251.022509098	n/a	FFZ_102.jpg	FFZ_102.jpg	FFX_139.jpg
251.192130089	1.828516006000001	face	0.853210926056	0.0	0.8	n/a	n/a	253.020646095	253.037950993	254.019929171	n/a	22M_AN_O.jpg	23M_AN_O.jpg	23M_AN_O.jpg
254.171859026	1.8507721419999823	face	0.738290071487	0.0	0.8	n/a	n/a	256.022631168	256.040132999	257.021795034	n/a	MAX_233.jpg	MAZ_146.jpg	MAZ_146.jpg
257.207483053	1.814073086000008	face	n/a	0.0	0.8	n/a	n/a	259.021556139	259.039894104	260.020289183	n/a	15F_FE_O.jpg	15F_FE_O.jpg	16F_FE_O.jpg
263.071537018	1.9481530189999603	shape	0.719184160233	0.0	0.8	260.119768143	263.019722223	265.019690037	265.036963224	266.018614054	n/a	oval-horizontal.bmp	oval-horizontal.bmp	oval-vertical.bmp
266.145347118	1.8731360439999776	shape	0.58731508255	0.0	0.8	n/a	n/a	268.018483162	268.035926104	269.017890215	n/a	oval-horizontal.bmp	oval-vertical.bmp	oval-vertical.bmp
269.15301919	1.864498853999976	shape	0.825845003128	0.0	0.8	n/a	n/a	271.017518044	271.035540104	272.017193079	n/a	circle.bmp	circle.bmp	oval-vertical.bmp
272.148715019	1.8815841680000176	shape	n/a	0.0	0.8	n/a	n/a	274.030299187	274.048539162	275.030948162	n/a	circle.bmp	oval-vertical.bmp	oval-vertical.bmp
275.166806221	1.8661589619999857	shape	n/a	0.0	0.8	n/a	n/a	277.032965183	277.050104141	278.032491207	n/a	oval-horizontal.bmp	circle.bmp	circle.bmp
278.168473005	1.863879204	shape	n/a	0.0	0.8	n/a	n/a	280.032352209	280.050001144	281.031237125	n/a	oval-horizontal.bmp	oval-horizontal.bmp	circle.bmp
284.099092007	1.930342196999959	face	0.652985095978	0.0	0.8	281.129097223	284.030215025	286.029434204	286.047668219	287.029485226	n/a	FFZ_18.jpg	FAZ_129.jpg	FAZ_129.jpg
287.215034008	1.8138670920000093	face	1.10289096832	0.0	0.8	n/a	n/a	289.0289011	289.046166182	290.02821517	n/a	20M_FE_O.jpg	24M_FE_O.jpg	24M_FE_O.jpg
290.191203117	1.8373250970000183	face	0.725536108017	0.0	0.8	n/a	n/a	292.028528214	292.045711994	293.027165174	n/a	FAZ_23.jpg	FAX_25.jpg	FAX_25.jpg
293.209707022	1.8151199810000087	face	1.07029080391	0.0	0.8	n/a	n/a	295.024827003	295.042182207	296.025000095	n/a	33M_FE_O.jpg	33M_FE_O.jpg	35M_FE_O.jpg
296.210824013	1.815441131	face	1.13851499557	0.0	0.8	n/a	n/a	298.026265144	298.044754028	299.025362015	n/a	01F_AN_O.jpg	01F_AN_O.jpg	02F_AN_O.jpg
299.179191113	1.8469951149999704	face	n/a	0.0	0.8	n/a	n/a	301.026186228	301.043101072	302.025401115	n/a	MFZ_132.jpg	MFZ_132.jpg	MFZ_120.jpg
305.076664209	1.947479009999995	shape	1.85187482834	0.0	0.8	302.126175165	305.02357316	307.024143219	307.040990114	308.022504091	n/a	oval-horizontal.bmp	oval-vertical.bmp	oval-vertical.bmp
308.158900023	1.8638601299999773	shape	0.543352127075	0.0	0.8	n/a	n/a	310.022760153	310.04093504	311.022553205	n/a	circle.bmp	oval-vertical.bmp	oval-vertical.bmp
311.158024073	1.864191055000049	shape	0.808151006699	0.0	0.8	n/a	n/a	313.022215128	313.039171219	314.021430016	n/a	oval-horizontal.bmp	oval-horizontal.bmp	oval-vertical.bmp
314.153306007	1.866408109999952	shape	0.836947917938	0.0	0.8	n/a	n/a	316.019714117	316.036634207	317.02026701	n/a	oval-horizontal.bmp	oval-horizontal.bmp	circle.bmp
317.15401721	1.86660385099998	shape	1.17176795006	0.0	0.8	n/a	n/a	319.020621061	319.038758993	320.02000308	n/a	circle.bmp	circle.bmp	oval-vertical.bmp
320.155462027	1.864946126999996	shape	0.884480953217	0.0	0.8	n/a	n/a	322.020408154	322.037674189	323.019231081	n/a	oval-horizontal.bmp	circle.bmp	circle.bmp
326.109047174	1.9087638859999745	face	n/a	0.0	0.8	323.119160175	326.018224001	328.01781106	328.035605192	329.033370018	n/a	17F_FE_O.jpg	18F_FE_O.jpg	18F_FE_O.jpg
329.218851089	1.81467294700002	face	n/a	0.0	0.8	n/a	n/a	331.033524036	331.050980091	332.032278061	n/a	42M_AN_O.jpg	43M_AN_O.jpg	43M_AN_O.jpg
332.218631029	1.8138511180000023	face	n/a	0.0	0.8	n/a	n/a	334.032482147	334.050491095	335.031781197	n/a	31M_FE_O.jpg	31M_FE_O.jpg	32M_FE_O.jpg
335.199939013	1.830162047999977	face	0.619283914566	0.0	0.8	n/a	n/a	337.030101061	337.047262192	338.031132221	n/a	FAZ_212.jpg	FFZ_236.jpg	FFZ_236.jpg
338.215742111	1.8152930740000104	face	0.888089895248	0.0	0.8	n/a	n/a	340.031035185	340.048624039	341.03057909	n/a	06F_FE_O.jpg	06F_FE_O.jpg	08F_FE_O.jpg
341.200401068	1.8291859619999968	face	0.788058996201	0.0	0.8	n/a	n/a	343.02958703	343.048526049	344.028745174	n/a	MAZ_128.jpg	MAZ_128.jpg	MAX_39.jpg
347.064037085	1.967131137000024	shape	0.719633102417	0.0	0.8	344.13052702	347.018620014	349.031168222	349.045808077	350.029500008	n/a	circle.bmp	oval-vertical.bmp	oval-vertical.bmp
350.171768188	1.8578059680000365	shape	0.744665145874	0.0	0.8	n/a	n/a	352.029574156	352.047325134	353.028948069	n/a	oval-horizontal.bmp	oval-horizontal.bmp	circle.bmp
353.173038006	1.85331010799996	shape	n/a	0.0	0.8	n/a	n/a	355.026348114	355.045031071	356.021632195	n/a	oval-horizontal.bmp	oval-vertical.bmp	oval-vertical.bmp
356.175443172	1.8478538990000288	shape	n/a	0.0	0.8	n/a	n/a	358.023297071	358.041156054	359.025647163	n/a	oval-horizontal.bmp	circle.bmp	circle.bmp
359.176645041	1.8489081850000275	shape	n/a	0.0	0.8	n/a	n/a	361.025553226	361.043140173	362.024011135	n/a	oval-horizontal.bmp	oval-horizontal.bmp	oval-vertical.bmp
362.176943064	1.8463490010000208	shape	0.568470001221	0.0	0.8	n/a	n/a	364.023292065	364.042365074	365.023553133	n/a	circle.bmp	circle.bmp	oval-vertical.bmp
368.097069025	1.925016164999988	face	0.662827014923	0.0	0.8	365.131374121	368.02236104	370.02208519	370.039288044	371.021031141	n/a	FFZ_18.jpg	FAZ_129.jpg	FAZ_129.jpg
371.215498209	1.8056318760000067	face	1.25989198685	0.0	0.8	n/a	n/a	373.021130085	373.038316011	374.020385027	n/a	20M_FE_O.jpg	24M_FE_O.jpg	24M_FE_O.jpg
374.183612108	1.849644900000044	face	1.12019991875	0.0	0.8	n/a	n/a	376.033257008	376.051053047	377.032458067	n/a	FAZ_23.jpg	FAX_25.jpg	FAX_25.jpg
377.21898222	1.8006358140000316	face	n/a	0.0	0.8	n/a	n/a	379.019618034	379.038331032	380.019806147	n/a	33M_FE_O.jpg	33M_FE_O.jpg	35M_FE_O.jpg
380.237653017	1.7812550069999702	face	n/a	0.0	0.8	n/a	n/a	382.018908024	382.036939144	383.01862812	n/a	01F_AN_O.jpg	01F_AN_O.jpg	02F_AN_O.jpg
383.187000036	1.8311550620000503	face	n/a	0.0	0.8	n/a	n/a	385.018155098	385.035969019	386.017699003	394.431366205	MFZ_132.jpg	MFZ_132.jpg	MFZ_120.jpg
