onset	duration	trial_type	response_time	accuracy_binarized	tr_seconds	cueStartTime	cueEndTime	trialEndTime	fixStartTime	fixEndTime	runEndTime	stimLeft	stimTop	stimRight
11.0592000484	1.968428135	shape	0.957401990891	1.0	0.8	8.02315211296	11.0108170509	13.0276281834	13.0323441029	14.0267081261	n/a	oval-horizontal.bmp	oval-horizontal.bmp	oval-vertical.bmp
14.1348049641	1.8916730879999992	shape	0.836869955063	1.0	0.8	n/a	n/a	16.0264780521	16.0301289558	17.026086092	n/a	oval-horizontal.bmp	oval-vertical.bmp	oval-vertical.bmp
17.1255421638	1.9008929730000013	shape	0.77415895462	1.0	0.8	n/a	n/a	19.0264351368	19.029968977	20.0253930092	n/a	circle.bmp	circle.bmp	oval-vertical.bmp
20.1265449524	1.8996391296000008	shape	0.706675052643	1.0	0.8	n/a	n/a	22.026184082	22.0298039913	23.0254640579	n/a	circle.bmp	oval-vertical.bmp	oval-vertical.bmp
23.125202179	1.899947881700001	shape	0.770393848419	1.0	0.8	n/a	n/a	25.0251500607	25.0287539959	26.0252959728	n/a	oval-horizontal.bmp	circle.bmp	circle.bmp
26.1282579899	1.8975470066	shape	0.690429925919	1.0	0.8	n/a	n/a	28.0258049965	28.0297911167	29.024711132	n/a	oval-horizontal.bmp	oval-horizontal.bmp	circle.bmp
32.090763092	1.9351289272999992	face	0.804003000259	1.0	0.8	29.0986740589	32.0243420601	34.0258920193	34.0304429531	35.0239629745	n/a	FAZ_23.jpg	FAZ_23.jpg	FAX_43.jpg
35.1675670147	1.8569369316000035	face	0.65367102623	1.0	0.8	n/a	n/a	37.0245039463	37.0281009674	38.023966074	n/a	26M_FE_O.jpg	26M_FE_O.jpg	27M_FE_O.BMP
38.1467871666	1.8774089813000003	face	0.772603988647	1.0	0.8	n/a	n/a	40.0241961479	40.0282130241	41.0235500336	n/a	MFX_16.jpg	MFZ_50.jpg	MFZ_50.jpg
41.17425704	1.8498909473999987	face	0.853307008743	1.0	0.8	n/a	n/a	43.0241479874	43.0277791023	44.0233280659	n/a	09F_AN_O.jpg	09F_AN_O.jpg	10F_AN_O.jpg
44.1581840515	1.8653099536999989	face	0.719922065735	1.0	0.8	n/a	n/a	46.0234940052	46.0269451141	47.0227611065	n/a	38M_AN_O.BMP	39M_AN_O.jpg	39M_AN_O.jpg
47.1429460049	1.8807811737000009	face	1.01642990112	1.0	0.8	n/a	n/a	49.0237271786	49.0274500847	50.0225889683	n/a	FFZ_102.jpg	FFX_130.jpg	FFX_130.jpg
53.0591490269	1.963366031599996	shape	0.669905900955	1.0	0.8	50.0975930691	53.0228471756	55.0225150585	55.027215004	56.021600008	n/a	oval-horizontal.bmp	oval-vertical.bmp	oval-vertical.bmp
56.1292109489	1.8924310207999968	shape	0.720018148422	1.0	0.8	n/a	n/a	58.0216419697	58.0253250599	59.0211920738	n/a	circle.bmp	oval-vertical.bmp	oval-vertical.bmp
59.1267139912	1.8949520588000013	shape	0.603442907333	1.0	0.8	n/a	n/a	61.02166605	61.0252430439	62.0210981369	n/a	oval-horizontal.bmp	oval-horizontal.bmp	oval-vertical.bmp
62.1254470348	1.896240949700008	shape	0.536481142044	1.0	0.8	n/a	n/a	64.0216879845	64.0255980492	65.0210001469	n/a	oval-horizontal.bmp	oval-horizontal.bmp	circle.bmp
65.1286389828	1.8927991390000043	shape	0.803718090057	1.0	0.8	n/a	n/a	67.0214381218	67.0249490738	68.0208370686	n/a	circle.bmp	circle.bmp	oval-vertical.bmp
68.1227071285	1.897858858100008	shape	0.754575014114	1.0	0.8	n/a	n/a	70.0205659866	70.0244009495	71.0201690197	n/a	oval-horizontal.bmp	circle.bmp	circle.bmp
74.1038529873	1.916635990100005	face	0.786050081253	1.0	0.8	71.0976481438	74.0207490921	76.0204889774	76.025372982	77.0194909573	n/a	03F_FE_O.jpg	05F_FE_O.jpg	05F_FE_O.jpg
77.1434180737	1.876404046999994	face	0.850250005722	1.0	0.8	n/a	n/a	79.0198221207	79.0234689713	80.0191841125	n/a	FAZ_32.jpg	FAZ_32.jpg	FAX_45.jpg
80.1436450481	1.875983953499997	face	1.253469944	0.0	0.8	n/a	n/a	82.0196290016	82.0234491825	83.0189020634	n/a	MAZ_128.jpg	MAZ_101.jpg	MAZ_101.jpg
83.1642069817	1.8551080225999923	face	0.9509370327	1.0	0.8	n/a	n/a	85.0193150043	85.0233390331	86.0186240673	n/a	11F_AN_O.jpg	11F_AN_O.jpg	12F_AN_O.jpg
86.1624550819	1.856034040499992	face	0.799570083618	1.0	0.8	n/a	n/a	88.0184891224	88.0224571228	89.0186090469	n/a	26M_FE_O.jpg	33M_FE_O.jpg	33M_FE_O.jpg
89.1414861679	1.8771169185999952	face	0.783593893051	1.0	0.8	n/a	n/a	91.0186030865	91.022053957	92.017537117	n/a	MFZ_132.jpg	MFZ_132.jpg	MFZ_120.jpg
95.0560359955	1.9618091583	shape	0.703480005264	1.0	0.8	92.0965909958	95.017414093	97.0178451538	97.0225641727	98.0167860985	n/a	circle.bmp	oval-vertical.bmp	oval-vertical.bmp
98.1207849979	1.896540165099992	shape	0.587121963501	1.0	0.8	n/a	n/a	100.017325163	100.021224976	101.016520977	n/a	oval-horizontal.bmp	oval-horizontal.bmp	circle.bmp
101.119441986	1.8975121980000007	shape	0.986914157867	1.0	0.8	n/a	n/a	103.016954184	103.020617008	104.016214132	n/a	oval-horizontal.bmp	oval-vertical.bmp	oval-vertical.bmp
104.125331163	1.891400814000008	shape	0.886497974396	1.0	0.8	n/a	n/a	106.016731977	106.020152092	107.016169071	n/a	oval-horizontal.bmp	circle.bmp	circle.bmp
107.122625113	1.8934710019999983	shape	0.837762117386	1.0	0.8	n/a	n/a	109.016096115	109.019818068	110.015762091	n/a	oval-horizontal.bmp	oval-horizontal.bmp	oval-vertical.bmp
110.121695995	1.8941130640000097	shape	0.803875207901	1.0	0.8	n/a	n/a	112.015809059	112.019654036	113.015280962	n/a	circle.bmp	circle.bmp	oval-vertical.bmp
116.070808172	1.9454779630000016	face	0.838050127029	1.0	0.8	113.097135067	116.014748096	118.016286135	118.020749092	119.014796019	n/a	FAZ_23.jpg	FAZ_23.jpg	FAX_43.jpg
119.147300005	1.867495059999996	face	0.719485998154	1.0	0.8	n/a	n/a	121.014795065	121.01879406	122.014393091	n/a	26M_FE_O.jpg	26M_FE_O.jpg	27M_FE_O.BMP
122.140120029	1.874781131999996	face	0.746978998184	1.0	0.8	n/a	n/a	124.014901161	124.019433975	125.014125109	n/a	MFZ_50.jpg	MFZ_50.jpg	MFX_16.jpg
125.163126945	1.8515810969999933	face	0.885684013367	1.0	0.8	n/a	n/a	127.014708042	127.018649101	128.013534069	n/a	10F_AN_O.jpg	09F_AN_O.jpg	09F_AN_O.jpg
128.147914171	1.866930007999997	face	0.736678123474	1.0	0.8	n/a	n/a	130.014844179	130.018507957	131.013206959	n/a	38M_AN_O.BMP	39M_AN_O.jpg	39M_AN_O.jpg
131.137417078	1.87658596	face	0.936330080032	1.0	0.8	n/a	n/a	133.014003038	133.017658949	134.013205051	n/a	FFZ_102.jpg	FFX_130.jpg	FFX_130.jpg
137.051175117	1.9625079639999967	shape	0.803859949112	1.0	0.8	134.094753027	137.013380051	139.013683081	139.018646955	140.013240099	n/a	oval-horizontal.bmp	oval-horizontal.bmp	oval-vertical.bmp
140.12029314	1.908924818000003	shape	0.702730894089	1.0	0.8	n/a	n/a	142.029217958	142.032889128	143.028979063	n/a	oval-horizontal.bmp	oval-vertical.bmp	oval-vertical.bmp
143.135570049	1.893589974000008	shape	0.75444984436	1.0	0.8	n/a	n/a	145.029160023	145.03283	146.028551102	n/a	circle.bmp	circle.bmp	oval-vertical.bmp
146.133957148	1.8943469520000065	shape	1.0028090477	1.0	0.8	n/a	n/a	148.0283041	148.032449961	149.028670073	n/a	circle.bmp	oval-vertical.bmp	oval-vertical.bmp
149.13598299	1.8922100069999883	shape	0.837045907974	1.0	0.8	n/a	n/a	151.028192997	151.031728029	152.027768135	n/a	oval-horizontal.bmp	circle.bmp	circle.bmp
152.137521029	1.8840699190000123	shape	0.66727399826	1.0	0.8	n/a	n/a	154.021590948	154.025524139	155.027367115	n/a	oval-horizontal.bmp	oval-horizontal.bmp	circle.bmp
158.099220991	1.9284710889999983	face	1.11991500854	1.0	0.8	155.111226082	158.021234989	160.02769208	160.032730103	161.026699066	n/a	20M_FE_O.jpg	21M_FE_O.jpg	21M_FE_O.jpg
161.183722019	1.8435850150000024	face	0.853449106216	1.0	0.8	n/a	n/a	163.027307034	163.030864	164.026214123	n/a	01F_AN_O.jpg	07F_AN_O.jpg	07F_AN_O.jpg
164.153038979	1.8688101760000109	face	0.935057878494	1.0	0.8	n/a	n/a	166.021849155	166.025740147	167.021267176	n/a	FFX_139.jpg	FFZ_102.jpg	FFZ_102.jpg
167.169358969	1.8525791170000048	face	0.835680961609	1.0	0.8	n/a	n/a	169.021938086	169.025588989	170.021126986	n/a	23M_AN_O.jpg	23M_AN_O.jpg	22M_AN_O.jpg
170.150135994	1.875553131000004	face	0.668349981308	1.0	0.8	n/a	n/a	172.025689125	172.029392004	173.026076078	n/a	MAZ_146.jpg	MAZ_146.jpg	MAX_233.jpg
173.173082113	1.8529870510000137	face	0.874734163284	1.0	0.8	n/a	n/a	175.026069164	175.029699087	176.024186134	n/a	15F_FE_O.jpg	15F_FE_O.jpg	16F_FE_O.jpg
179.062654018	1.962372065000011	shape	1.28855800629	1.0	0.8	176.109639168	179.025051117	181.025026083	181.029615164	182.024403095	n/a	oval-horizontal.bmp	oval-vertical.bmp	oval-vertical.bmp
182.134013176	1.891247988000004	shape	0.556570053101	1.0	0.8	n/a	n/a	184.025261164	184.029325008	185.025089025	n/a	circle.bmp	oval-vertical.bmp	oval-vertical.bmp
185.139410019	1.8852031229999968	shape	0.7064909935	1.0	0.8	n/a	n/a	187.024613142	187.028495073	188.023378134	n/a	oval-horizontal.bmp	oval-horizontal.bmp	oval-vertical.bmp
188.139042139	1.8853728770000089	shape	0.590601921082	1.0	0.8	n/a	n/a	190.024415016	190.027990103	191.02323103	n/a	oval-horizontal.bmp	oval-horizontal.bmp	circle.bmp
191.133715153	1.8903620240000123	shape	0.719058036804	1.0	0.8	n/a	n/a	193.024077177	193.027693033	194.023617983	n/a	circle.bmp	circle.bmp	oval-vertical.bmp
194.137228966	1.886045217000003	shape	0.806638002396	1.0	0.8	n/a	n/a	196.023274183	196.027310133	197.022829056	n/a	oval-horizontal.bmp	circle.bmp	circle.bmp
200.080207109	1.9427750119999985	face	1.08561205864	1.0	0.8	197.111902952	200.021991968	202.022982121	202.027956009	203.021924019	n/a	FFX_54.jpg	FFX_54.jpg	FAX_51.jpg
203.165585041	1.8570349219999969	face	0.605215072632	1.0	0.8	n/a	n/a	205.022619963	205.02622509	206.021569014	n/a	40M_FE_O.BMP	41M_FE_O.jpg	41M_FE_O.jpg
206.17098403	1.851171015999995	face	0.584929943085	1.0	0.8	n/a	n/a	208.022155046	208.026153088	209.021514177	n/a	29M_AN_O.jpg	29M_AN_O.jpg	28M_AN_O.jpg
209.150597095	1.8710439209999947	face	0.702697038651	1.0	0.8	n/a	n/a	211.021641016	211.02513504	212.021214008	n/a	FFZ_18.jpg	FFZ_29.jpg	FFZ_29.jpg
212.177389145	1.844287871999996	face	0.654050827026	1.0	0.8	n/a	n/a	214.021677017	214.025453091	215.02115798	n/a	19F_AN_O.jpg	19F_AN_O.jpg	09F_AN_O.jpg
215.151316166	1.870128870000002	face	0.717993974686	1.0	0.8	n/a	n/a	217.021445036	217.025067091	218.020223141	n/a	MFZ_132.jpg	MFZ_7.jpg	MFZ_7.jpg
221.057783127	1.96280884700002	shape	0.649646043777	1.0	0.8	218.112355947	221.020488977	223.020591974	223.02513504	224.019628048	n/a	circle.bmp	oval-vertical.bmp	oval-vertical.bmp
224.134744167	1.885204791999996	shape	0.634105920792	1.0	0.8	n/a	n/a	226.019948959	226.023627996	227.018970013	n/a	oval-horizontal.bmp	oval-horizontal.bmp	circle.bmp
227.131266117	1.8881399630000144	shape	0.98549079895	1.0	0.8	n/a	n/a	229.01940608	229.023302078	230.018871069	n/a	oval-horizontal.bmp	oval-vertical.bmp	oval-vertical.bmp
230.136366129	1.8828449250000008	shape	0.669703006744	1.0	0.8	n/a	n/a	232.019211054	232.023128986	233.018601179	n/a	oval-horizontal.bmp	circle.bmp	circle.bmp
233.134359121	1.884887934000005	shape	0.583710193634	1.0	0.8	n/a	n/a	235.019247055	235.022879124	236.018874168	n/a	oval-horizontal.bmp	oval-horizontal.bmp	oval-vertical.bmp
236.132192135	1.886883974	shape	0.652992010117	1.0	0.8	n/a	n/a	238.019076109	238.022729158	239.018196106	n/a	circle.bmp	circle.bmp	oval-vertical.bmp
242.097078085	1.9218928810000195	face	0.936989068985	1.0	0.8	239.109786034	242.01813817	244.018970966	244.023827076	245.018208981	n/a	20M_FE_O.jpg	21M_FE_O.jpg	21M_FE_O.jpg
245.170637131	1.847450017999989	face	0.702313184738	1.0	0.8	n/a	n/a	247.018087149	247.021744013	248.01702404	n/a	07F_AN_O.jpg	07F_AN_O.jpg	01F_AN_O.jpg
248.146887064	1.870573997000008	face	0.885628223419	1.0	0.8	n/a	n/a	250.017461061	250.021097183	251.01684618	n/a	FFZ_102.jpg	FFZ_102.jpg	FFX_139.jpg
251.176807165	1.840765952999988	face	0.882843017578	1.0	0.8	n/a	n/a	253.017573118	253.02107811	254.016514063	n/a	22M_AN_O.jpg	23M_AN_O.jpg	23M_AN_O.jpg
254.149949074	1.866302966999968	face	0.904114961624	1.0	0.8	n/a	n/a	256.016252041	256.020390034	257.015830994	n/a	MAX_233.jpg	MAZ_146.jpg	MAZ_146.jpg
257.168985128	1.847470999000052	face	0.687237024307	1.0	0.8	n/a	n/a	259.016456127	259.020019054	260.015483141	n/a	15F_FE_O.jpg	15F_FE_O.jpg	16F_FE_O.jpg
263.052062988	1.9636740690000352	shape	0.701639175415	1.0	0.8	260.110375166	263.01531601	265.015737057	265.020311117	266.014827967	n/a	oval-horizontal.bmp	oval-horizontal.bmp	oval-vertical.bmp
266.132815123	1.8818030350000183	shape	n/a	0.0	0.8	n/a	n/a	268.014618158	268.018501043	269.015326977	n/a	oval-horizontal.bmp	oval-vertical.bmp	oval-vertical.bmp
269.136038065	1.87873005900002	shape	0.702574014664	1.0	0.8	n/a	n/a	271.014768124	271.018329144	272.014424086	n/a	circle.bmp	circle.bmp	oval-vertical.bmp
272.13233614	1.8826799390000133	shape	0.671079874039	1.0	0.8	n/a	n/a	274.015016079	274.01859808	275.014367104	n/a	circle.bmp	oval-vertical.bmp	oval-vertical.bmp
275.131805182	1.88240885700003	shape	0.752899885178	1.0	0.8	n/a	n/a	277.014214039	277.017840147	278.013556957	n/a	oval-horizontal.bmp	circle.bmp	circle.bmp
278.133380175	1.880645990000005	shape	0.786926984787	1.0	0.8	n/a	n/a	280.014026165	280.017729044	281.013409138	n/a	oval-horizontal.bmp	oval-horizontal.bmp	circle.bmp
284.089622974	1.9240081309999937	face	0.797214984894	1.0	0.8	281.108138084	284.029620171	286.013631105	286.01813817	287.013177156	n/a	FFZ_18.jpg	FAZ_129.jpg	FAZ_129.jpg
287.168758154	1.861039876999996	face	1.65270709991	1.0	0.8	n/a	n/a	289.029798031	289.033653021	290.013066053	n/a	20M_FE_O.jpg	24M_FE_O.jpg	24M_FE_O.jpg
290.148955107	1.8700170509999907	face	0.728977918625	1.0	0.8	n/a	n/a	292.018972158	292.022644043	293.01918602	n/a	FAZ_23.jpg	FAX_25.jpg	FAX_25.jpg
293.178181171	1.8508567810000045	face	0.636978149414	1.0	0.8	n/a	n/a	295.029037952	295.032740116	296.028352976	n/a	33M_FE_O.jpg	33M_FE_O.jpg	35M_FE_O.jpg
296.190862179	1.83806681599998	face	0.694752931595	1.0	0.8	n/a	n/a	298.028928995	298.032683134	299.028097153	n/a	01F_AN_O.jpg	01F_AN_O.jpg	02F_AN_O.jpg
299.162764072	1.8656260969999607	face	1.5693218708	1.0	0.8	n/a	n/a	301.028390169	301.032191038	302.027408123	n/a	MFZ_132.jpg	MFZ_132.jpg	MFZ_120.jpg
305.067583084	1.9601359370000184	shape	1.11986899376	1.0	0.8	302.12324214	305.027883053	307.027719021	307.032442093	308.026824951	n/a	oval-horizontal.bmp	oval-vertical.bmp	oval-vertical.bmp
308.150159121	1.877558946000022	shape	0.470424890518	1.0	0.8	n/a	n/a	310.027718067	310.031243086	311.026699066	n/a	circle.bmp	oval-vertical.bmp	oval-vertical.bmp
311.147488117	1.87978506099995	shape	0.603436946869	1.0	0.8	n/a	n/a	313.027273178	313.030903101	314.02660799	n/a	oval-horizontal.bmp	oval-horizontal.bmp	oval-vertical.bmp
314.145512104	1.8806529050000336	shape	0.566395044327	1.0	0.8	n/a	n/a	316.026165009	316.03038311	317.026059151	n/a	oval-horizontal.bmp	oval-horizontal.bmp	circle.bmp
317.146593094	1.879622935999976	shape	0.620267152786	1.0	0.8	n/a	n/a	319.02621603	319.029822111	320.025633097	n/a	circle.bmp	circle.bmp	oval-vertical.bmp
320.143962145	1.881855011000028	shape	n/a	0.0	0.8	n/a	n/a	322.025817156	322.029523134	323.02525115	n/a	oval-horizontal.bmp	circle.bmp	circle.bmp
326.109323025	1.909534930999996	face	0.93746304512	1.0	0.8	323.127285004	326.025036097	328.018857956	328.023750067	329.018872023	n/a	17F_FE_O.jpg	18F_FE_O.jpg	18F_FE_O.jpg
329.178282976	1.8469190600000047	face	0.735553979874	1.0	0.8	n/a	n/a	331.025202036	331.028916121	332.023535013	n/a	42M_AN_O.jpg	43M_AN_O.jpg	43M_AN_O.jpg
332.182729006	1.8420310019999988	face	0.886429071426	1.0	0.8	n/a	n/a	334.024760008	334.028395176	335.024528027	n/a	31M_FE_O.jpg	31M_FE_O.jpg	32M_FE_O.jpg
335.164436102	1.8598790169999688	face	0.73654794693	1.0	0.8	n/a	n/a	337.024315119	337.0279181	338.02386713	n/a	FAZ_212.jpg	FFZ_236.jpg	FFZ_236.jpg
338.185978174	1.8324069980000104	face	0.686635971069	1.0	0.8	n/a	n/a	340.018385172	340.022567034	341.03542614	n/a	06F_FE_O.jpg	06F_FE_O.jpg	08F_FE_O.jpg
341.171141148	1.852537869999992	face	0.841700077057	1.0	0.8	n/a	n/a	343.023679018	343.027584076	344.023259163	n/a	MAZ_128.jpg	MAZ_128.jpg	MAX_39.jpg
347.06027317	1.9631469249999896	shape	0.823623180389	1.0	0.8	344.126888037	347.02305007	349.023420095	349.028054953	350.022536039	n/a	circle.bmp	oval-vertical.bmp	oval-vertical.bmp
350.147133112	1.8746008869999853	shape	0.604395151138	1.0	0.8	n/a	n/a	352.021733999	352.025367975	353.021934986	n/a	oval-horizontal.bmp	oval-horizontal.bmp	circle.bmp
353.144060135	1.8780069349999733	shape	0.590516805649	1.0	0.8	n/a	n/a	355.02206707	355.025671005	356.021499157	n/a	oval-horizontal.bmp	oval-vertical.bmp	oval-vertical.bmp
356.143785	1.8786389830000303	shape	0.790233850479	1.0	0.8	n/a	n/a	358.022423983	358.026211023	359.021454096	n/a	oval-horizontal.bmp	circle.bmp	circle.bmp
359.147413015	1.874161005000019	shape	0.722501993179	0.0	0.8	n/a	n/a	361.02157402	361.025151014	362.020769119	n/a	oval-horizontal.bmp	oval-horizontal.bmp	oval-vertical.bmp
362.142407179	1.878044844000044	shape	0.724357128143	1.0	0.8	n/a	n/a	364.020452023	364.024084091	365.021183968	n/a	circle.bmp	circle.bmp	oval-vertical.bmp
368.077016115	1.944357872000012	face	0.686476945877	1.0	0.8	365.12414813	368.020743132	370.021373987	370.026144981	371.019399166	n/a	FFZ_18.jpg	FAZ_129.jpg	FAZ_129.jpg
371.184741974	1.8361780639999663	face	0.971344947815	1.0	0.8	n/a	n/a	373.020920038	373.024561167	374.019577026	n/a	20M_FE_O.jpg	24M_FE_O.jpg	24M_FE_O.jpg
374.158765078	1.861233948999996	face	0.872033119202	1.0	0.8	n/a	n/a	376.019999027	376.023985147	377.019091129	n/a	FAZ_23.jpg	FAX_25.jpg	FAX_25.jpg
377.182342052	1.8376350409999984	face	n/a	0.0	0.8	n/a	n/a	379.019977093	379.023611069	380.019659042	n/a	33M_FE_O.jpg	33M_FE_O.jpg	35M_FE_O.jpg
380.184914112	1.834547997000016	face	0.737424135208	1.0	0.8	n/a	n/a	382.019462109	382.022870064	383.018545151	n/a	01F_AN_O.jpg	01F_AN_O.jpg	02F_AN_O.jpg
383.157423019	1.862290143999985	face	0.637054920197	1.0	0.8	n/a	n/a	385.019713163	385.023492098	386.018201113	394.418065071	MFZ_132.jpg	MFZ_132.jpg	MFZ_120.jpg
