onset	duration	trial_type	response_time	accuracy_binarized	tr_seconds	cueStartTime	cueEndTime	trialEndTime	fixStartTime	fixEndTime	runEndTime	stimLeft	stimTop	stimRight
11.0648300648	1.9691197871999984	shape	1.10234689713	1.0	0.8	8.02709007263	11.0172588825	13.033949852	13.0385689735	14.0333518982	n/a	oval-horizontal.bmp	oval-horizontal.bmp	oval-vertical.bmp
14.1508760452	1.8822820187	shape	1.13430905342	1.0	0.8	n/a	n/a	16.0331580639	16.0370268822	17.0326499939	n/a	oval-horizontal.bmp	oval-vertical.bmp	oval-vertical.bmp
17.1298239231	1.902425050700004	shape	0.93595790863	1.0	0.8	n/a	n/a	19.0322489738	19.0357580185	20.0317380428	n/a	circle.bmp	circle.bmp	oval-vertical.bmp
20.1290409565	1.9032750130000016	shape	0.737007141113	1.0	0.8	n/a	n/a	22.0323159695	22.0359289646	23.0317029953	n/a	circle.bmp	oval-vertical.bmp	oval-vertical.bmp
23.1299939156	1.901638031000001	shape	0.887217998505	1.0	0.8	n/a	n/a	25.0316319466	25.035284996	26.0318698883	n/a	oval-horizontal.bmp	circle.bmp	circle.bmp
26.1324679852	1.8992350101	shape	0.785887002945	1.0	0.8	n/a	n/a	28.0317029953	28.0357558727	29.0311820507	n/a	oval-horizontal.bmp	oval-horizontal.bmp	circle.bmp
32.0943310261	1.9366619587	face	1.72117304802	1.0	0.8	29.1073420048	32.0312099457	34.0309929848	34.0354449749	35.030698061	n/a	FAZ_23.jpg	FAZ_23.jpg	FAX_43.jpg
35.1736409664	1.8579390048999969	face	1.25432395935	1.0	0.8	n/a	n/a	37.0315799713	37.035161972	38.0305759907	n/a	26M_FE_O.jpg	26M_FE_O.jpg	27M_FE_O.BMP
38.1573939323	1.8732111453999991	face	0.851054191589	1.0	0.8	n/a	n/a	40.0306050777	40.0346689224	41.0303909779	n/a	MFX_16.jpg	MFZ_50.jpg	MFZ_50.jpg
41.1829049587	1.8475370406999967	face	1.53598189354	0.0	0.8	n/a	n/a	43.0304419994	43.034334898	44.0298509598	n/a	09F_AN_O.jpg	09F_AN_O.jpg	10F_AN_O.jpg
44.1668629646	1.8639049530000025	face	1.17024898529	0.0	0.8	n/a	n/a	46.0307679176	46.0343739986	47.0300219059	n/a	38M_AN_O.BMP	39M_AN_O.jpg	39M_AN_O.jpg
47.1530559063	1.8769891262000016	face	1.62157893181	1.0	0.8	n/a	n/a	49.0300450325	49.0336408615	50.0286798477	n/a	FFZ_102.jpg	FFX_130.jpg	FFX_130.jpg
53.0670819283	1.9617230891999995	shape	0.869002103806	1.0	0.8	50.1070420742	53.0292930603	55.0288050175	55.0334780216	56.027848959	n/a	oval-horizontal.bmp	oval-vertical.bmp	oval-vertical.bmp
56.1268150806	1.9017047883000016	shape	0.604171991348	1.0	0.8	n/a	n/a	58.0285198689	58.0321369171	59.0282309055	n/a	circle.bmp	oval-vertical.bmp	oval-vertical.bmp
59.1307659149	1.8973929881999965	shape	0.686024904251	1.0	0.8	n/a	n/a	61.0281589031	61.031883955	62.0274269581	n/a	oval-horizontal.bmp	oval-horizontal.bmp	oval-vertical.bmp
62.1292529106	1.8992409706000049	shape	0.80348610878	1.0	0.8	n/a	n/a	64.0284938812	64.0324509144	65.0272810459	n/a	oval-horizontal.bmp	oval-horizontal.bmp	circle.bmp
65.1328749657	1.895179986900004	shape	1.02080798149	1.0	0.8	n/a	n/a	67.0280549526	67.031496048	68.026763916	n/a	circle.bmp	circle.bmp	oval-vertical.bmp
68.1259510517	1.901207923900003	shape	0.736739873886	1.0	0.8	n/a	n/a	70.0271589756	70.0310678482	71.026499033	n/a	oval-horizontal.bmp	circle.bmp	circle.bmp
74.1158559322	1.9107220172999888	face	0.721404790878	1.0	0.8	71.1025710106	74.0269448757	76.0265779495	76.0311470032	77.0254669189	n/a	03F_FE_O.jpg	05F_FE_O.jpg	05F_FE_O.jpg
77.1540329456	1.872329950400001	face	0.895776033401	1.0	0.8	n/a	n/a	79.026362896	79.0299890041	80.024821043	n/a	FAZ_32.jpg	FAZ_32.jpg	FAX_45.jpg
80.1491649151	1.8769190311000017	face	1.18681693077	1.0	0.8	n/a	n/a	82.0260839462	82.0299088955	83.0252768993	n/a	MAZ_128.jpg	MAZ_101.jpg	MAZ_101.jpg
83.1749579906	1.8508858680999936	face	0.903500080109	1.0	0.8	n/a	n/a	85.0258438587	85.0292720795	86.0252280235	n/a	11F_AN_O.jpg	11F_AN_O.jpg	12F_AN_O.jpg
86.1682629585	1.8568079472000107	face	0.780045986176	1.0	0.8	n/a	n/a	88.0250709057	88.0288109779	89.0250718594	n/a	26M_FE_O.jpg	33M_FE_O.jpg	33M_FE_O.jpg
89.1513390541	1.873811960199987	face	0.960291862488	1.0	0.8	n/a	n/a	91.0251510143	91.028678894	92.0233259201	n/a	MFZ_132.jpg	MFZ_132.jpg	MFZ_120.jpg
95.0626749992	1.9619789124	shape	0.686892032623	0.0	0.8	92.1020278931	95.0241060257	97.0246539116	97.0294470787	98.0231800079	n/a	circle.bmp	oval-vertical.bmp	oval-vertical.bmp
98.1258699894	1.897413968599992	shape	0.686322927475	1.0	0.8	n/a	n/a	100.023283958	100.027387857	101.023237944	n/a	oval-horizontal.bmp	oval-horizontal.bmp	circle.bmp
101.130982876	1.892522095999993	shape	0.704285860062	1.0	0.8	n/a	n/a	103.023504972	103.027235031	104.022917986	n/a	oval-horizontal.bmp	oval-vertical.bmp	oval-vertical.bmp
104.127532005	1.8957178599999909	shape	1.23586201668	1.0	0.8	n/a	n/a	106.023249865	106.026874065	107.022436857	n/a	oval-horizontal.bmp	circle.bmp	circle.bmp
107.125968933	1.8971970080000065	shape	1.15465092659	1.0	0.8	n/a	n/a	109.023165941	109.02679801	110.022466898	n/a	oval-horizontal.bmp	oval-horizontal.bmp	oval-vertical.bmp
110.125411034	1.8973488800000096	shape	0.653553962708	1.0	0.8	n/a	n/a	112.022759914	112.026619911	113.021668911	n/a	circle.bmp	circle.bmp	oval-vertical.bmp
116.075475931	1.9475450519999955	face	0.753106832504	0.0	0.8	113.102174044	116.020766973	118.023020983	118.027642965	119.021998882	n/a	FAZ_23.jpg	FAZ_23.jpg	FAX_43.jpg
119.15729785	1.8642661569999888	face	1.2325630188	1.0	0.8	n/a	n/a	121.021564007	121.025230885	122.021055937	n/a	26M_FE_O.jpg	26M_FE_O.jpg	27M_FE_O.BMP
122.143698931	1.8771529200000003	face	0.719437122345	1.0	0.8	n/a	n/a	124.020851851	124.024638891	125.020495892	n/a	MFZ_50.jpg	MFZ_50.jpg	MFX_16.jpg
125.168166876	1.864367008000002	face	1.08376312256	0.0	0.8	n/a	n/a	127.032533884	127.036138058	128.031708002	n/a	10F_AN_O.jpg	09F_AN_O.jpg	09F_AN_O.jpg
128.166610003	1.865988969	face	0.853426218033	1.0	0.8	n/a	n/a	130.032598972	130.036284924	131.031708956	n/a	38M_AN_O.BMP	39M_AN_O.jpg	39M_AN_O.jpg
131.157798052	1.863274813000004	face	0.920434236526	1.0	0.8	n/a	n/a	133.021072865	133.024632931	134.020041943	n/a	FFZ_102.jpg	FFX_130.jpg	FFX_130.jpg
137.074753046	1.961714982999979	shape	0.853412866592	1.0	0.8	134.103517056	137.036323071	139.036468029	139.040986061	140.035592079	n/a	oval-horizontal.bmp	oval-horizontal.bmp	oval-vertical.bmp
140.139055967	1.8965880869999976	shape	0.774522066116	0.0	0.8	n/a	n/a	142.035644054	142.039260864	143.035309076	n/a	oval-horizontal.bmp	oval-vertical.bmp	oval-vertical.bmp
143.142935991	1.892620087000012	shape	1.15444111824	1.0	0.8	n/a	n/a	145.035556078	145.03944993	146.03502202	n/a	circle.bmp	circle.bmp	oval-vertical.bmp
146.146492004	1.8885040289999893	shape	0.657382965088	1.0	0.8	n/a	n/a	148.034996033	148.038503885	149.034898043	n/a	circle.bmp	oval-vertical.bmp	oval-vertical.bmp
149.143061876	1.892460108000023	shape	0.767876148224	1.0	0.8	n/a	n/a	151.035521984	151.039103031	152.034555912	n/a	oval-horizontal.bmp	circle.bmp	circle.bmp
152.144017935	1.8902001380000115	shape	0.890076875687	1.0	0.8	n/a	n/a	154.034218073	154.037785053	155.033961058	n/a	oval-horizontal.bmp	oval-horizontal.bmp	circle.bmp
158.119916916	1.913810968000007	face	n/a	0.0	0.8	155.119545937	158.033495903	160.033727884	160.038430929	161.033333063	n/a	20M_FE_O.jpg	21M_FE_O.jpg	21M_FE_O.jpg
161.187098026	1.8467829230000063	face	1.00479507446	1.0	0.8	n/a	n/a	163.033880949	163.037503958	164.033501863	n/a	01F_AN_O.jpg	07F_AN_O.jpg	07F_AN_O.jpg
164.159995079	1.873317957000012	face	0.622611045837	1.0	0.8	n/a	n/a	166.033313036	166.036921024	167.033030033	n/a	FFX_139.jpg	FFZ_102.jpg	FFZ_102.jpg
167.184299946	1.8492090700000008	face	1.15410399437	1.0	0.8	n/a	n/a	169.033509016	169.037141085	170.032031059	n/a	23M_AN_O.jpg	23M_AN_O.jpg	22M_AN_O.jpg
170.163366079	1.8691668509999888	face	0.753861904144	1.0	0.8	n/a	n/a	172.03253293	172.036123991	173.032444954	n/a	MAZ_146.jpg	MAZ_146.jpg	MAX_233.jpg
173.185201883	1.847128153	face	1.75361084938	1.0	0.8	n/a	n/a	175.032330036	175.03589201	176.031756878	n/a	15F_FE_O.jpg	15F_FE_O.jpg	16F_FE_O.jpg
179.070888996	1.9607748990000005	shape	0.903437852859	1.0	0.8	176.118044853	179.03190589	181.031663895	181.036136866	182.030761003	n/a	oval-horizontal.bmp	oval-vertical.bmp	oval-vertical.bmp
182.140094995	1.891422034000016	shape	0.586039066315	1.0	0.8	n/a	n/a	184.031517029	184.035181999	185.030709982	n/a	circle.bmp	oval-vertical.bmp	oval-vertical.bmp
185.138069868	1.8933169839999948	shape	1.17186594009	1.0	0.8	n/a	n/a	187.031386852	187.034977913	188.030856848	n/a	oval-horizontal.bmp	oval-horizontal.bmp	oval-vertical.bmp
188.140733004	1.8895490170000075	shape	1.05375504494	1.0	0.8	n/a	n/a	190.030282021	190.033840895	191.029633999	n/a	oval-horizontal.bmp	oval-horizontal.bmp	circle.bmp
191.13886404	1.8912470340000027	shape	0.953037023544	1.0	0.8	n/a	n/a	193.030111074	193.033756971	194.02944088	n/a	circle.bmp	circle.bmp	oval-vertical.bmp
194.138292074	1.8918499950000007	shape	0.803566932678	1.0	0.8	n/a	n/a	196.030142069	196.034187078	197.029384851	n/a	oval-horizontal.bmp	circle.bmp	circle.bmp
200.086905956	1.942944049999994	face	0.887261867523	1.0	0.8	197.116261005	200.028655052	202.029850006	202.034307003	203.02868104	n/a	FFX_54.jpg	FFX_54.jpg	FAX_51.jpg
203.173399925	1.855710983999984	face	0.753046989441	1.0	0.8	n/a	n/a	205.029110909	205.032719851	206.028218031	n/a	40M_FE_O.BMP	41M_FE_O.jpg	41M_FE_O.jpg
206.188570976	1.8403658870000184	face	1.06769299507	1.0	0.8	n/a	n/a	208.028936863	208.032939911	209.028003931	n/a	29M_AN_O.jpg	29M_AN_O.jpg	28M_AN_O.jpg
209.15774107	1.870333910000028	face	0.585793018341	1.0	0.8	n/a	n/a	211.02807498	211.031504869	212.027705908	n/a	FFZ_18.jpg	FFZ_29.jpg	FFZ_29.jpg
212.189890862	1.8389902110000087	face	0.769651889801	1.0	0.8	n/a	n/a	214.028881073	214.032471895	215.027019978	n/a	19F_AN_O.jpg	19F_AN_O.jpg	09F_AN_O.jpg
215.157742023	1.8702409269999976	face	0.734900951385	0.0	0.8	n/a	n/a	217.02798295	217.031497955	218.026885986	n/a	MFZ_132.jpg	MFZ_7.jpg	MFZ_7.jpg
221.063585043	1.962872028000021	shape	0.952366113663	0.0	0.8	218.115828037	221.026921988	223.026457071	223.030900955	224.025798082	n/a	circle.bmp	oval-vertical.bmp	oval-vertical.bmp
224.140769958	1.8860569010000177	shape	0.653194904327	1.0	0.8	n/a	n/a	226.026826859	226.03065896	227.025701046	n/a	oval-horizontal.bmp	oval-horizontal.bmp	circle.bmp
227.138087988	1.8882079120000128	shape	0.90033698082	1.0	0.8	n/a	n/a	229.0262959	229.029968977	230.025344849	n/a	oval-horizontal.bmp	oval-vertical.bmp	oval-vertical.bmp
230.136184931	1.889292955000002	shape	0.715833187103	1.0	0.8	n/a	n/a	232.025477886	232.029543877	233.025079966	n/a	oval-horizontal.bmp	circle.bmp	circle.bmp
233.141084909	1.8843669899999893	shape	0.920491933823	1.0	0.8	n/a	n/a	235.025451899	235.029012918	236.024862051	n/a	oval-horizontal.bmp	oval-horizontal.bmp	oval-vertical.bmp
236.141854048	1.8831839560000103	shape	0.68709897995	0.0	0.8	n/a	n/a	238.025038004	238.0286479	239.024952888	n/a	circle.bmp	circle.bmp	oval-vertical.bmp
242.10430789	1.9201769830000048	face	1.41499209404	1.0	0.8	239.116354942	242.024570942	244.024484873	244.029350042	245.023923874	n/a	20M_FE_O.jpg	21M_FE_O.jpg	21M_FE_O.jpg
245.178343058	1.846022844000004	face	1.20560312271	1.0	0.8	n/a	n/a	247.024365902	247.027859926	248.023791075	n/a	07F_AN_O.jpg	07F_AN_O.jpg	01F_AN_O.jpg
248.156156063	1.867719889	face	0.970164060593	1.0	0.8	n/a	n/a	250.023875952	250.02745986	251.023758888	n/a	FFZ_102.jpg	FFZ_102.jpg	FFX_139.jpg
251.181374073	1.8422470090000047	face	0.870460033417	0.0	0.8	n/a	n/a	253.023621082	253.027297974	254.022944927	n/a	22M_AN_O.jpg	23M_AN_O.jpg	23M_AN_O.jpg
254.157585859	1.8654470449999965	face	0.920575857162	1.0	0.8	n/a	n/a	256.023032904	256.026759863	257.022446871	n/a	MAX_233.jpg	MAZ_146.jpg	MAZ_146.jpg
257.17709589	1.8458020690000008	face	1.2219388485	1.0	0.8	n/a	n/a	259.022897959	259.026715994	260.021535873	n/a	15F_FE_O.jpg	15F_FE_O.jpg	16F_FE_O.jpg
263.059187889	1.963142156999993	shape	0.97104716301	1.0	0.8	260.112982988	263.021816015	265.022330046	265.026924849	266.021440983	n/a	oval-horizontal.bmp	oval-horizontal.bmp	oval-vertical.bmp
266.136597872	1.8855831620000456	shape	0.763537883759	1.0	0.8	n/a	n/a	268.022181034	268.026278019	269.021947861	n/a	oval-horizontal.bmp	oval-vertical.bmp	oval-vertical.bmp
269.136972904	1.8847491739999784	shape	1.24290180206	1.0	0.8	n/a	n/a	271.021722078	271.025393963	272.020534039	n/a	circle.bmp	circle.bmp	oval-vertical.bmp
272.134717941	1.8862829209999743	shape	0.877882957458	1.0	0.8	n/a	n/a	274.021000862	274.024697065	275.02046299	n/a	circle.bmp	oval-vertical.bmp	oval-vertical.bmp
275.135932922	1.884874105999984	shape	0.678464889526	0.0	0.8	n/a	n/a	277.020807028	277.024477005	278.020504951	n/a	oval-horizontal.bmp	circle.bmp	circle.bmp
278.138063908	1.899047136000036	shape	1.02892804146	1.0	0.8	n/a	n/a	280.037111044	280.040755033	281.019943953	n/a	oval-horizontal.bmp	oval-horizontal.bmp	circle.bmp
284.091593981	1.945306061999986	face	0.786421060562	1.0	0.8	281.113780022	284.029809952	286.036900043	286.041730881	287.035865068	n/a	FFZ_18.jpg	FAZ_129.jpg	FAZ_129.jpg
287.198330879	1.832060098999989	face	1.11920714378	1.0	0.8	n/a	n/a	289.030390978	289.034012079	290.029578924	n/a	20M_FE_O.jpg	24M_FE_O.jpg	24M_FE_O.jpg
290.165514946	1.8650190830000497	face	0.719831943512	1.0	0.8	n/a	n/a	292.030534029	292.034127951	293.029507875	n/a	FAZ_23.jpg	FAX_25.jpg	FAX_25.jpg
293.184475899	1.851091145999988	face	0.804020166397	1.0	0.8	n/a	n/a	295.035567045	295.039206028	296.034986019	n/a	33M_FE_O.jpg	33M_FE_O.jpg	35M_FE_O.jpg
296.193947077	1.836579798999992	face	1.03755879402	1.0	0.8	n/a	n/a	298.030526876	298.034164906	299.02946806	n/a	01F_AN_O.jpg	01F_AN_O.jpg	02F_AN_O.jpg
299.162255049	1.8727188109999704	face	1.30758714676	1.0	0.8	n/a	n/a	301.03497386	301.038812876	302.033884048	n/a	MFZ_132.jpg	MFZ_132.jpg	MFZ_120.jpg
305.071542978	1.962941884999964	shape	1.03689908981	1.0	0.8	302.127954006	305.033567905	307.034484863	307.038923025	308.03399086	n/a	oval-horizontal.bmp	oval-vertical.bmp	oval-vertical.bmp
308.157363892	1.876473188000034	shape	0.819463014603	1.0	0.8	n/a	n/a	310.03383708	310.037479877	311.033161879	n/a	circle.bmp	oval-vertical.bmp	oval-vertical.bmp
311.156517029	1.8773579600000403	shape	0.887067079544	1.0	0.8	n/a	n/a	313.033874989	313.037477016	314.032813072	n/a	oval-horizontal.bmp	oval-horizontal.bmp	oval-vertical.bmp
314.149638891	1.8831481940000003	shape	0.840595960617	1.0	0.8	n/a	n/a	316.032787085	316.036601067	317.032546043	n/a	oval-horizontal.bmp	oval-horizontal.bmp	circle.bmp
317.152648926	1.8802001470000391	shape	0.941213130951	1.0	0.8	n/a	n/a	319.032849073	319.036440849	320.032055855	n/a	circle.bmp	circle.bmp	oval-vertical.bmp
320.152611971	1.880256890999988	shape	0.741186857224	1.0	0.8	n/a	n/a	322.032868862	322.036542892	323.031913042	n/a	oval-horizontal.bmp	circle.bmp	circle.bmp
326.112678051	1.919672966000008	face	0.954782962799	1.0	0.8	323.127500057	326.031794071	328.032351017	328.03685689	329.031075001	n/a	17F_FE_O.jpg	18F_FE_O.jpg	18F_FE_O.jpg
329.193971872	1.8375651839999705	face	0.65332698822	1.0	0.8	n/a	n/a	331.031537056	331.03531599	332.030557871	n/a	42M_AN_O.jpg	43M_AN_O.jpg	43M_AN_O.jpg
332.198184013	1.8333418369999777	face	0.754648923874	1.0	0.8	n/a	n/a	334.03152585	334.035136938	335.030514002	n/a	31M_FE_O.jpg	31M_FE_O.jpg	32M_FE_O.jpg
335.171084881	1.8603861329999631	face	0.6363530159	1.0	0.8	n/a	n/a	337.031471014	337.035130978	338.030443907	n/a	FAZ_212.jpg	FFZ_236.jpg	FFZ_236.jpg
338.197124958	1.833555936999972	face	0.955399990082	1.0	0.8	n/a	n/a	340.030680895	340.034610987	341.029741049	n/a	06F_FE_O.jpg	06F_FE_O.jpg	08F_FE_O.jpg
341.168550014	1.8616290100000008	face	0.887084007263	1.0	0.8	n/a	n/a	343.030179024	343.033940077	344.029844046	n/a	MAZ_128.jpg	MAZ_128.jpg	MAX_39.jpg
347.066109896	1.9634401800000203	shape	1.15317392349	1.0	0.8	344.126960993	347.028987885	349.029550076	349.034008026	350.028617859	n/a	circle.bmp	oval-vertical.bmp	oval-vertical.bmp
350.148961067	1.8798658849999583	shape	0.80326294899	1.0	0.8	n/a	n/a	352.028826952	352.032433987	353.028665066	n/a	oval-horizontal.bmp	oval-horizontal.bmp	circle.bmp
353.150245905	1.8785500529999688	shape	0.687381982803	1.0	0.8	n/a	n/a	355.028795958	355.032480001	356.028128862	n/a	oval-horizontal.bmp	oval-vertical.bmp	oval-vertical.bmp
356.156159878	1.8729619979999936	shape	0.836675167084	1.0	0.8	n/a	n/a	358.029121876	358.032850027	359.028537035	n/a	oval-horizontal.bmp	circle.bmp	circle.bmp
359.149343967	1.878283978000013	shape	0.8041908741	1.0	0.8	n/a	n/a	361.027627945	361.031188965	362.027279854	n/a	oval-horizontal.bmp	oval-horizontal.bmp	oval-vertical.bmp
362.148673058	1.878901004	shape	0.869552135468	0.0	0.8	n/a	n/a	364.027574062	364.031168938	365.027127028	n/a	circle.bmp	circle.bmp	oval-vertical.bmp
368.085680008	1.9417810439999807	face	1.02017998695	1.0	0.8	365.13003397	368.026926041	370.027461052	370.032584906	371.025873899	n/a	FFZ_18.jpg	FAZ_129.jpg	FAZ_129.jpg
371.194541931	1.8326361179999824	face	1.47007989883	1.0	0.8	n/a	n/a	373.027178049	373.030780077	374.026562929	n/a	20M_FE_O.jpg	24M_FE_O.jpg	24M_FE_O.jpg
374.169542074	1.8569788930000184	face	0.719638109207	1.0	0.8	n/a	n/a	376.026520967	376.030590057	377.026072025	n/a	FAZ_23.jpg	FAX_25.jpg	FAX_25.jpg
377.195251942	1.83139300299996	face	1.18839216232	1.0	0.8	n/a	n/a	379.026644945	379.030236959	380.025197983	n/a	33M_FE_O.jpg	33M_FE_O.jpg	35M_FE_O.jpg
380.197207928	1.828696965999996	face	0.720970153809	1.0	0.8	n/a	n/a	382.025904894	382.029475927	383.02498889	n/a	01F_AN_O.jpg	01F_AN_O.jpg	02F_AN_O.jpg
383.170036077	1.8558559420000047	face	1.0674328804	0.0	0.8	n/a	n/a	385.025892019	385.029649973	386.024597883	394.424584866	MFZ_132.jpg	MFZ_132.jpg	MFZ_120.jpg
