onset	duration	trial_type	response_time	accuracy_binarized	tr_seconds	cueStartTime	cueEndTime	trialEndTime	fixStartTime	fixEndTime	runEndTime	stimLeft	stimTop	stimRight
11.0789401531	1.9504630566000003	shape	1.10429787636	1.0	0.8	8.02436304092	11.0159451962	13.0294032097	13.046298027	14.0315451622	n/a	oval-horizontal.bmp	oval-horizontal.bmp	oval-vertical.bmp
14.1491391659	1.8824219703000007	shape	0.570555925369	1.0	0.8	n/a	n/a	16.0315611362	16.0474770069	17.029938221	n/a	oval-horizontal.bmp	oval-vertical.bmp	oval-vertical.bmp
17.1480770111	1.8820919991000016	shape	0.785426139832	1.0	0.8	n/a	n/a	19.0301690102	19.0472431183	20.0288391113	n/a	circle.bmp	circle.bmp	oval-vertical.bmp
20.1470901966	1.8819270133999983	shape	0.769238948822	1.0	0.8	n/a	n/a	22.02901721	22.0449171066	23.0276520252	n/a	circle.bmp	oval-vertical.bmp	oval-vertical.bmp
23.135515213	1.8920378684999968	shape	0.54647898674	1.0	0.8	n/a	n/a	25.0275530815	25.0447840691	26.0273010731	n/a	oval-horizontal.bmp	circle.bmp	circle.bmp
26.1364722252	1.8901329040000008	shape	0.943831920624	1.0	0.8	n/a	n/a	28.0266051292	28.043336153	29.0265591145	n/a	oval-horizontal.bmp	oval-horizontal.bmp	circle.bmp
32.0896692276	1.9339549541000025	face	0.886017084122	1.0	0.8	29.1023151875	32.0256230831	34.0236241817	34.0392432213	35.0244560242	n/a	FAZ_23.jpg	FAZ_23.jpg	FAX_43.jpg
35.1748361588	1.849614858599999	face	1.53705692291	1.0	0.8	n/a	n/a	37.0244510174	37.0415210724	38.0239541531	n/a	26M_FE_O.jpg	26M_FE_O.jpg	27M_FE_O.BMP
38.1592981815	1.864542007499999	face	0.735857963562	1.0	0.8	n/a	n/a	40.023840189	40.0397191048	41.0227220058	n/a	MFX_16.jpg	MFZ_50.jpg	MFZ_50.jpg
41.1767830849	1.8458631037999995	face	1.13100194931	1.0	0.8	n/a	n/a	43.0226461887	43.0391581059	44.0217251778	n/a	09F_AN_O.jpg	09F_AN_O.jpg	10F_AN_O.jpg
44.1732831001	1.8481509686000024	face	1.2523021698	1.0	0.8	n/a	n/a	46.0214340687	46.0375161171	47.0201342106	n/a	38M_AN_O.BMP	39M_AN_O.jpg	39M_AN_O.jpg
47.1469991207	1.873245000899999	face	0.726801156998	1.0	0.8	n/a	n/a	49.0202441216	49.0364310741	50.0198850632	n/a	FFZ_102.jpg	FFX_130.jpg	FFX_130.jpg
53.0830500126	1.952986002000003	shape	0.650323152542	1.0	0.8	50.1121270657	53.0359110832	55.0360360146	55.0521950722	56.0353209972	n/a	oval-horizontal.bmp	oval-vertical.bmp	oval-vertical.bmp
56.1520681381	1.8834118843000027	shape	0.471797943115	1.0	0.8	n/a	n/a	58.0354800224	58.0509221554	59.0342071056	n/a	circle.bmp	oval-vertical.bmp	oval-vertical.bmp
59.1513671875	1.8818778991999991	shape	0.7830764055245001	0.0	0.8	n/a	n/a	61.0332450867	61.0504112244	62.033509016	n/a	oval-horizontal.bmp	oval-horizontal.bmp	oval-vertical.bmp
62.1499960423	1.8823630808999925	shape	1.00229907036	1.0	0.8	n/a	n/a	64.0323591232	64.049295187	65.0324010849	n/a	oval-horizontal.bmp	oval-horizontal.bmp	circle.bmp
65.1388511658	1.8927469252999884	shape	0.612312078476	1.0	0.8	n/a	n/a	67.0315980911	67.0480492115	68.0312020779	n/a	circle.bmp	circle.bmp	oval-vertical.bmp
68.1406471729	1.8903629779999989	shape	1.05805492401	1.0	0.8	n/a	n/a	70.0310101509	70.0476570129	71.0298080444	n/a	oval-horizontal.bmp	circle.bmp	circle.bmp
74.1270201206	1.8997330666000067	face	1.27055001259	1.0	0.8	71.1099162102	74.0291311741	76.0267531872	76.0436720848	77.0286831856	n/a	03F_FE_O.jpg	05F_FE_O.jpg	05F_FE_O.jpg
77.1608641148	1.867846012099989	face	0.953824996948	1.0	0.8	n/a	n/a	79.0287101269	79.0447142124	80.0272250175	n/a	FAZ_32.jpg	FAZ_32.jpg	FAX_45.jpg
80.1622900963	1.8651800155000016	face	1.55077815056	1.0	0.8	n/a	n/a	82.0274701118	82.0432920456	83.0265231133	n/a	MAZ_128.jpg	MAZ_101.jpg	MAZ_101.jpg
83.1776640415	1.8483610153	face	1.25188803673	1.0	0.8	n/a	n/a	85.0260250568	85.0422651768	86.0256910324	n/a	11F_AN_O.jpg	11F_AN_O.jpg	12F_AN_O.jpg
86.1828579903	1.8422920704000063	face	1.17888092995	1.0	0.8	n/a	n/a	88.0251500607	88.0413570404	89.0248820782	n/a	26M_FE_O.jpg	33M_FE_O.jpg	33M_FE_O.jpg
89.158550024	1.8658311367000096	face	1.0741789341	1.0	0.8	n/a	n/a	91.0243811607	91.0407090187	92.0231781006	n/a	MFZ_132.jpg	MFZ_132.jpg	MFZ_120.jpg
95.0703470707	1.9524500370000053	shape	0.802695989609	1.0	0.8	92.1114161015	95.0226931572	97.0227971077	97.0387420654	98.0224661827	n/a	circle.bmp	oval-vertical.bmp	oval-vertical.bmp
98.1382901669	1.883409977099987	shape	0.786784172058	1.0	0.8	n/a	n/a	100.021700144	100.038635015	101.020573139	n/a	oval-horizontal.bmp	oval-horizontal.bmp	circle.bmp
101.138488054	1.8825180529999983	shape	0.835597991943	1.0	0.8	n/a	n/a	103.021006107	103.037967205	104.019843102	n/a	oval-horizontal.bmp	oval-vertical.bmp	oval-vertical.bmp
104.137620211	1.882099867000008	shape	0.986083984375	1.0	0.8	n/a	n/a	106.019720078	106.036253214	107.035780191	n/a	oval-horizontal.bmp	circle.bmp	circle.bmp
107.153180122	1.8823020460000064	shape	0.693843126297	1.0	0.8	n/a	n/a	109.035482168	109.051984072	110.034625053	n/a	oval-horizontal.bmp	oval-horizontal.bmp	oval-vertical.bmp
110.151764154	1.8828928469999937	shape	0.710406064987	1.0	0.8	n/a	n/a	112.034657001	112.051104069	113.033829212	n/a	circle.bmp	circle.bmp	oval-vertical.bmp
116.097704172	1.935461998000008	face	0.770607948303	1.0	0.8	113.115572214	116.033236027	118.03316617	118.049254179	119.032557011	n/a	FAZ_23.jpg	FAZ_23.jpg	FAX_43.jpg
119.182137012	1.849256992999997	face	0.903059005737	1.0	0.8	n/a	n/a	121.031394005	121.048576117	122.031171083	n/a	26M_FE_O.jpg	26M_FE_O.jpg	27M_FE_O.BMP
122.166415215	1.8646769519999964	face	0.681324958801	1.0	0.8	n/a	n/a	124.031092167	124.047679186	125.030139208	n/a	MFZ_50.jpg	MFZ_50.jpg	MFX_16.jpg
125.185217142	1.8448028570000048	face	1.21515107155	1.0	0.8	n/a	n/a	127.030019999	127.045958996	128.029319048	n/a	10F_AN_O.jpg	09F_AN_O.jpg	09F_AN_O.jpg
128.170397043	1.857804059999978	face	1.0295779705	1.0	0.8	n/a	n/a	130.028201103	130.044939995	131.028139114	n/a	38M_AN_O.BMP	39M_AN_O.jpg	39M_AN_O.jpg
131.162554026	1.865157127000004	face	0.691262960434	1.0	0.8	n/a	n/a	133.027711153	133.044221163	134.026561022	n/a	FFZ_102.jpg	FFX_130.jpg	FFX_130.jpg
137.074619055	1.951457022999989	shape	0.920209884644	1.0	0.8	134.125956059	137.026607037	139.026076078	139.043292046	140.026018143	n/a	oval-horizontal.bmp	oval-horizontal.bmp	oval-vertical.bmp
140.142376184	1.8831589229999963	shape	0.719300031662	1.0	0.8	n/a	n/a	142.025535107	142.042503119	143.025315046	n/a	oval-horizontal.bmp	oval-vertical.bmp	oval-vertical.bmp
143.142542124	1.8823380470000188	shape	0.83887720108	1.0	0.8	n/a	n/a	145.024880171	145.040598154	146.023184061	n/a	circle.bmp	circle.bmp	oval-vertical.bmp
146.141892195	1.8813858030000008	shape	0.885673046112	1.0	0.8	n/a	n/a	148.023277998	148.04008913	149.023108006	n/a	circle.bmp	oval-vertical.bmp	oval-vertical.bmp
149.140279055	1.881556986999982	shape	0.559954881668	1.0	0.8	n/a	n/a	151.021836042	151.038626194	152.022094011	n/a	oval-horizontal.bmp	circle.bmp	circle.bmp
152.139905214	1.8813579090000017	shape	0.643637180328	1.0	0.8	n/a	n/a	154.021263123	154.038081169	155.020972013	n/a	oval-horizontal.bmp	oval-horizontal.bmp	circle.bmp
158.104183197	1.9154269699999984	face	n/a	0.0	0.8	155.105072021	158.020163059	160.019610167	160.036841154	161.01978302	n/a	20M_FE_O.jpg	21M_FE_O.jpg	21M_FE_O.jpg
161.186197996	1.8496460920000004	face	0.769644021988	1.0	0.8	n/a	n/a	163.035844088	163.051798105	164.03542614	n/a	01F_AN_O.jpg	07F_AN_O.jpg	07F_AN_O.jpg
164.169487	1.8643791670000096	face	0.686017990112	1.0	0.8	n/a	n/a	166.033866167	166.051484108	167.033937216	n/a	FFX_139.jpg	FFZ_102.jpg	FFZ_102.jpg
167.204046011	1.829670190999991	face	0.953647136688	1.0	0.8	n/a	n/a	169.033716202	169.04967308	170.033279181	n/a	23M_AN_O.jpg	23M_AN_O.jpg	22M_AN_O.jpg
170.167221069	1.865667105	face	0.910040855408	1.0	0.8	n/a	n/a	172.032888174	172.048838139	173.031453133	n/a	MAZ_146.jpg	MAZ_146.jpg	MAX_233.jpg
173.192609072	1.83856511099998	face	n/a	0.0	0.8	n/a	n/a	175.031174183	175.048412085	176.031125069	n/a	15F_FE_O.jpg	15F_FE_O.jpg	16F_FE_O.jpg
179.078766108	1.9516201010000032	shape	0.768400907516	1.0	0.8	176.119271994	179.027006149	181.030386209	181.046285152	182.029641151	n/a	oval-horizontal.bmp	oval-vertical.bmp	oval-vertical.bmp
182.146670103	1.882272959000005	shape	0.65322303772	1.0	0.8	n/a	n/a	184.028943062	184.046306133	185.027481079	n/a	circle.bmp	oval-vertical.bmp	oval-vertical.bmp
185.1622262	1.8660500050000053	shape	0.685638189316	1.0	0.8	n/a	n/a	187.028276205	187.044939041	188.027300119	n/a	oval-horizontal.bmp	oval-horizontal.bmp	oval-vertical.bmp
188.144682169	1.8824670310000045	shape	0.637050151825	1.0	0.8	n/a	n/a	190.0271492	190.043703079	191.026643991	n/a	oval-horizontal.bmp	oval-horizontal.bmp	circle.bmp
191.144371033	1.881436108999992	shape	0.644667863846	1.0	0.8	n/a	n/a	193.025807142	193.042967081	194.025618076	n/a	circle.bmp	circle.bmp	oval-vertical.bmp
194.142373085	1.8837370869999857	shape	0.609893083572	1.0	0.8	n/a	n/a	196.026110172	196.041163206	197.023995161	n/a	oval-horizontal.bmp	circle.bmp	circle.bmp
200.089924097	1.934736966999992	face	0.906172037125	1.0	0.8	197.113249063	200.021373034	202.024661064	202.039782047	203.023361206	n/a	FFX_54.jpg	FFX_54.jpg	FAX_51.jpg
203.174190044	1.848816156999988	face	0.653110027313	1.0	0.8	n/a	n/a	205.023006201	205.040118217	206.02238512	n/a	40M_FE_O.BMP	41M_FE_O.jpg	41M_FE_O.jpg
206.239738226	1.781966925000006	face	0.619902133942	1.0	0.8	n/a	n/a	208.021705151	208.038099051	209.020392179	n/a	29M_AN_O.jpg	29M_AN_O.jpg	28M_AN_O.jpg
209.160605192	1.859403849000017	face	0.880636930466	1.0	0.8	n/a	n/a	211.020009041	211.037176132	212.0200212	n/a	FFZ_18.jpg	FFZ_29.jpg	FFZ_29.jpg
212.187849045	1.8320441239999925	face	1.05967092514	1.0	0.8	n/a	n/a	214.019893169	214.036177158	215.019452095	n/a	19F_AN_O.jpg	19F_AN_O.jpg	09F_AN_O.jpg
215.162885189	1.8724968429999933	face	0.925731897354	1.0	0.8	n/a	n/a	217.035382032	217.051406145	218.034864187	n/a	MFZ_132.jpg	MFZ_7.jpg	MFZ_7.jpg
221.082641125	1.9513959880000016	shape	0.90519118309	1.0	0.8	218.12582016	221.034373999	223.034037113	223.049992085	224.033537149	n/a	circle.bmp	oval-vertical.bmp	oval-vertical.bmp
224.166988134	1.8658418659999825	shape	0.719444990158	1.0	0.8	n/a	n/a	226.03283	226.049926996	227.03164506	n/a	oval-horizontal.bmp	oval-horizontal.bmp	circle.bmp
227.169090033	1.862801074999993	shape	0.551291942596	1.0	0.8	n/a	n/a	229.031891108	229.048831224	230.031198025	n/a	oval-horizontal.bmp	oval-vertical.bmp	oval-vertical.bmp
230.154261112	1.877086878	shape	0.52991104126	1.0	0.8	n/a	n/a	232.03134799	232.046775103	233.030541182	n/a	oval-horizontal.bmp	circle.bmp	circle.bmp
233.147865057	1.8817651270000224	shape	0.693876028061	1.0	0.8	n/a	n/a	235.029630184	235.046778202	236.029655218	n/a	oval-horizontal.bmp	oval-horizontal.bmp	oval-vertical.bmp
236.157468081	1.8711960310000109	shape	0.593042850494	1.0	0.8	n/a	n/a	238.028664112	238.045771122	239.028037071	n/a	circle.bmp	circle.bmp	oval-vertical.bmp
242.110372066	1.9176459319999992	face	1.43738889694	1.0	0.8	239.120634079	242.028194189	244.028017998	244.044186115	245.026956081	n/a	20M_FE_O.jpg	21M_FE_O.jpg	21M_FE_O.jpg
245.194712162	1.8318159579999929	face	0.703049182892	1.0	0.8	n/a	n/a	247.02652812	247.04344821	248.025695086	n/a	07F_AN_O.jpg	07F_AN_O.jpg	01F_AN_O.jpg
248.176775217	1.8484590049999952	face	0.982933044434	1.0	0.8	n/a	n/a	250.025234222	250.042396069	251.0245471	n/a	FFZ_102.jpg	FFZ_102.jpg	FFX_139.jpg
251.19256115	1.8317849630000185	face	1.28585100174	1.0	0.8	n/a	n/a	253.024346113	253.040569067	254.024174213	n/a	22M_AN_O.jpg	23M_AN_O.jpg	23M_AN_O.jpg
254.166409016	1.856847047000031	face	0.827821016312	1.0	0.8	n/a	n/a	256.023256063	256.040125132	257.022545099	n/a	MAX_233.jpg	MAZ_146.jpg	MAZ_146.jpg
257.200961113	1.821748972000023	face	1.04389882088	1.0	0.8	n/a	n/a	259.022710085	259.039111137	260.022065163	n/a	15F_FE_O.jpg	15F_FE_O.jpg	16F_FE_O.jpg
263.069869041	1.9510300160000045	shape	0.552683115005	1.0	0.8	260.114010096	263.021226168	265.020899057	265.037028074	266.020671129	n/a	oval-horizontal.bmp	oval-horizontal.bmp	oval-vertical.bmp
266.154497147	1.8652849190000325	shape	0.818699121475	1.0	0.8	n/a	n/a	268.019782066	268.036954165	269.03648901	n/a	oval-horizontal.bmp	oval-vertical.bmp	oval-vertical.bmp
269.156107187	1.8800430300000244	shape	0.599521160126	1.0	0.8	n/a	n/a	271.036150217	271.052378178	272.0348382	n/a	circle.bmp	circle.bmp	oval-vertical.bmp
272.157968044	1.876775980000048	shape	0.780174970627	1.0	0.8	n/a	n/a	274.034744024	274.05094409	275.033266068	n/a	circle.bmp	oval-vertical.bmp	oval-vertical.bmp
275.159104109	1.8740789889999967	shape	0.527596950531	1.0	0.8	n/a	n/a	277.033183098	277.050466061	278.032160997	n/a	oval-horizontal.bmp	circle.bmp	circle.bmp
278.160468102	1.8722689150000065	shape	0.825381994247	1.0	0.8	n/a	n/a	280.032737017	280.048904181	281.031737089	n/a	oval-horizontal.bmp	oval-horizontal.bmp	circle.bmp
284.097330093	1.933377027999996	face	0.754961967468	1.0	0.8	281.126564026	284.030078173	286.030707121	286.047899008	287.030893087	n/a	FFZ_18.jpg	FAZ_129.jpg	FAZ_129.jpg
287.215068102	1.8158009050000032	face	0.882759094238	1.0	0.8	n/a	n/a	289.030869007	289.047583103	290.028608084	n/a	20M_FE_O.jpg	24M_FE_O.jpg	24M_FE_O.jpg
290.179509163	1.850036859	face	0.635535955429	1.0	0.8	n/a	n/a	292.029546022	292.045070171	293.027681112	n/a	FAZ_23.jpg	FAX_25.jpg	FAX_25.jpg
293.196072102	1.832493065999984	face	0.935579776764	1.0	0.8	n/a	n/a	295.028565168	295.044695139	296.026984215	n/a	33M_FE_O.jpg	33M_FE_O.jpg	35M_FE_O.jpg
296.194957018	1.832359075	face	0.659528017044	1.0	0.8	n/a	n/a	298.027316093	298.043377161	299.026615143	n/a	01F_AN_O.jpg	01F_AN_O.jpg	02F_AN_O.jpg
299.187777042	1.8387210370000275	face	0.87517118454	1.0	0.8	n/a	n/a	301.026498079	301.042870998	302.025885105	n/a	MFZ_132.jpg	MFZ_132.jpg	MFZ_120.jpg
305.074566126	1.950808047999999	shape	0.654844045639	1.0	0.8	302.121553183	305.025110006	307.025374174	307.041723013	308.024241209	n/a	oval-horizontal.bmp	oval-vertical.bmp	oval-vertical.bmp
308.158397198	1.8651959890000285	shape	0.669078111649	1.0	0.8	n/a	n/a	310.023593187	310.040034056	311.022788048	n/a	circle.bmp	oval-vertical.bmp	oval-vertical.bmp
311.1576612	1.8641939159999763	shape	0.683449029922	1.0	0.8	n/a	n/a	313.021855116	313.039230108	314.021876097	n/a	oval-horizontal.bmp	oval-horizontal.bmp	oval-vertical.bmp
314.145278215	1.8761548999999604	shape	0.628157138824	1.0	0.8	n/a	n/a	316.021433115	316.03819418	317.020688057	n/a	oval-horizontal.bmp	oval-horizontal.bmp	circle.bmp
317.146750212	1.8740899560000344	shape	0.544324159622	1.0	0.8	n/a	n/a	319.020840168	319.03740716	320.019549131	n/a	circle.bmp	circle.bmp	oval-vertical.bmp
320.14875412	1.871176958000035	shape	0.691166162491	1.0	0.8	n/a	n/a	322.019931078	322.036655188	323.019401073	n/a	oval-horizontal.bmp	circle.bmp	circle.bmp
326.13522315	1.899303912999983	face	0.621337890625	1.0	0.8	323.118045092	326.035553217	328.034527063	328.051896095	329.03464222	n/a	17F_FE_O.jpg	18F_FE_O.jpg	18F_FE_O.jpg
329.202984095	1.8309819690000493	face	0.551326990128	1.0	0.8	n/a	n/a	331.033966064	331.049748182	332.033516169	n/a	42M_AN_O.jpg	43M_AN_O.jpg	43M_AN_O.jpg
332.204212189	1.8286898130000395	face	0.948185920715	1.0	0.8	n/a	n/a	334.032902002	334.049206018	335.032063007	n/a	31M_FE_O.jpg	31M_FE_O.jpg	32M_FE_O.jpg
335.182842016	1.848882199000002	face	0.786628961563	1.0	0.8	n/a	n/a	337.031724215	337.047661066	338.031275034	n/a	FAZ_212.jpg	FFZ_236.jpg	FFZ_236.jpg
338.207770109	1.8231298929999864	face	0.911812067032	1.0	0.8	n/a	n/a	340.030900002	340.047092199	341.030465126	n/a	06F_FE_O.jpg	06F_FE_O.jpg	08F_FE_O.jpg
341.225016117	1.805392026999982	face	0.742594003677	1.0	0.8	n/a	n/a	343.030408144	343.046010017	344.026123047	n/a	MAZ_128.jpg	MAZ_128.jpg	MAX_39.jpg
347.078756094	1.9499409199999604	shape	0.620850086212	1.0	0.8	344.124577999	347.028286219	349.028697014	349.044573069	350.028069019	n/a	circle.bmp	oval-vertical.bmp	oval-vertical.bmp
350.161920071	1.865993022999988	shape	0.953382968903	1.0	0.8	n/a	n/a	352.027913094	352.043911219	353.026956081	n/a	oval-horizontal.bmp	oval-horizontal.bmp	circle.bmp
353.160884142	1.8650360110000288	shape	0.552821159363	1.0	0.8	n/a	n/a	355.025920153	355.043287992	356.02553606	n/a	oval-horizontal.bmp	oval-vertical.bmp	oval-vertical.bmp
356.160153151	1.865468025000041	shape	0.40362906456	1.0	0.8	n/a	n/a	358.025621176	358.041846991	359.024149179	n/a	oval-horizontal.bmp	circle.bmp	circle.bmp
359.158565998	1.8658521180000207	shape	0.743870019913	1.0	0.8	n/a	n/a	361.024418116	361.041551113	362.02286315	n/a	oval-horizontal.bmp	oval-horizontal.bmp	oval-vertical.bmp
362.169248104	1.854480981999984	shape	0.95813703537	1.0	0.8	n/a	n/a	364.023729086	364.040275097	365.019884109	n/a	circle.bmp	circle.bmp	oval-vertical.bmp
368.088596106	1.9339530459999992	face	0.954509019852	1.0	0.8	365.121409178	368.022518158	370.022549152	370.038450003	371.020636082	n/a	FFZ_18.jpg	FAZ_129.jpg	FAZ_129.jpg
371.192767143	1.82818698899996	face	1.31776309013	1.0	0.8	n/a	n/a	373.020954132	373.037950993	374.020333052	n/a	20M_FE_O.jpg	24M_FE_O.jpg	24M_FE_O.jpg
374.170735121	1.849504947000014	face	0.668841838837	1.0	0.8	n/a	n/a	376.020240068	376.036240101	377.019170046	n/a	FAZ_23.jpg	FAX_25.jpg	FAX_25.jpg
377.19265008	1.8431429859999755	face	0.862761974335	1.0	0.8	n/a	n/a	379.035793066	379.051915169	380.035094023	n/a	33M_FE_O.jpg	33M_FE_O.jpg	35M_FE_O.jpg
380.211097002	1.8232321740000543	face	0.859551906586	1.0	0.8	n/a	n/a	382.034329176	382.051026106	383.034074068	n/a	01F_AN_O.jpg	01F_AN_O.jpg	02F_AN_O.jpg
383.185075045	1.848277091999989	face	0.74183011055	1.0	0.8	n/a	n/a	385.033352137	385.050383091	386.029926062	394.43081522	MFZ_132.jpg	MFZ_132.jpg	MFZ_120.jpg
