onset	duration	trial_type	response_time	accuracy_binarized	tr_seconds	cueStartTime	cueEndTime	trialEndTime	fixStartTime	fixEndTime	runEndTime	stimLeft	stimTop	stimRight
11.0898089409	1.9589571953	shape	0.87745308876	1.0	0.8	8.04207491875	11.0316729546	13.0487661362	13.0646829605	14.0468270779	n/a	oval-horizontal.bmp	oval-horizontal.bmp	oval-vertical.bmp
14.1646790504	1.8827650546999983	shape	0.725412845612	1.0	0.8	n/a	n/a	16.0474441051	16.063642025	17.0462701321	n/a	oval-horizontal.bmp	oval-vertical.bmp	oval-vertical.bmp
17.1596500874	1.883436918200001	shape	0.870073080063	1.0	0.8	n/a	n/a	19.0430870056	19.0603001118	20.0439689159	n/a	circle.bmp	circle.bmp	oval-vertical.bmp
20.1611249447	1.8843820095000008	shape	0.737884998322	1.0	0.8	n/a	n/a	22.0455069542	22.0617671013	23.0454211235	n/a	circle.bmp	oval-vertical.bmp	oval-vertical.bmp
23.1623771191	1.8819270133999983	shape	0.669230222702	1.0	0.8	n/a	n/a	25.0443041325	25.0615289211	26.0435731411	n/a	oval-horizontal.bmp	circle.bmp	circle.bmp
26.1612241268	1.8818249702999983	shape	0.786518096924	1.0	0.8	n/a	n/a	28.0430490971	28.0601480007	29.0428240299	n/a	oval-horizontal.bmp	oval-horizontal.bmp	circle.bmp
32.1092550755	1.932554960200001	face	0.777508020401	1.0	0.8	29.1207969189	32.0416181087	34.0418100357	34.0575969219	35.0412099361	n/a	FAZ_23.jpg	FAZ_23.jpg	FAX_43.jpg
35.1912720203	1.849378109	face	0.742567062378	1.0	0.8	n/a	n/a	37.0406501293	37.056759119	38.0399439335	n/a	26M_FE_O.jpg	26M_FE_O.jpg	27M_FE_O.BMP
38.1739370823	1.8635458946000008	face	0.703308105469	1.0	0.8	n/a	n/a	40.0374829769	40.0534639359	41.0395460129	n/a	MFX_16.jpg	MFZ_50.jpg	MFZ_50.jpg
41.204709053	1.8340089322	face	0.702154159546	1.0	0.8	n/a	n/a	43.0387179852	43.0561270714	44.038670063	n/a	09F_AN_O.jpg	09F_AN_O.jpg	10F_AN_O.jpg
44.1895720959	1.8484330177000032	face	0.619225978851	1.0	0.8	n/a	n/a	46.0380051136	46.0541291237	47.0369949341	n/a	38M_AN_O.BMP	39M_AN_O.jpg	39M_AN_O.jpg
47.1723899841	1.8651199341000009	face	0.702559947968	1.0	0.8	n/a	n/a	49.0375099182	49.0530459881	50.0359561443	n/a	FFZ_102.jpg	FFX_130.jpg	FFX_130.jpg
53.0857830048	1.948970079399999	shape	0.678380012512	1.0	0.8	50.1135909557	53.0355341434	55.0347530842	55.0515811443	56.0510890484	n/a	oval-horizontal.bmp	oval-vertical.bmp	oval-vertical.bmp
56.1688330173	1.8814570903999976	shape	0.524922132492	1.0	0.8	n/a	n/a	58.0502901077	58.0672230721	59.0500509739	n/a	circle.bmp	oval-vertical.bmp	oval-vertical.bmp
59.1680920124	1.879331111900001	shape	0.617212057114	1.0	0.8	n/a	n/a	61.0474231243	61.063655138	62.0496430397	n/a	oval-horizontal.bmp	oval-horizontal.bmp	oval-vertical.bmp
62.1657919884	1.883708953799996	shape	0.97019982338	1.0	0.8	n/a	n/a	64.0495009422	64.0661890507	65.0490701199	n/a	oval-horizontal.bmp	oval-horizontal.bmp	circle.bmp
65.1661851406	1.8821408748999888	shape	0.700902938843	1.0	0.8	n/a	n/a	67.0483260155	67.0649280548	68.047935009	n/a	circle.bmp	circle.bmp	oval-vertical.bmp
68.1647229195	1.8818521499000127	shape	0.702554941177	1.0	0.8	n/a	n/a	70.0465750694	70.0636510849	71.0457000732	n/a	oval-horizontal.bmp	circle.bmp	circle.bmp
74.138256073	1.907093048100009	face	0.794584989548	1.0	0.8	71.1268661022	74.0448889732	76.0453491211	76.0612740517	77.0442690849	n/a	03F_FE_O.jpg	05F_FE_O.jpg	05F_FE_O.jpg
77.1781859398	1.8662672043000013	face	0.609170913696	1.0	0.8	n/a	n/a	79.0444531441	79.0608141422	80.0438449383	n/a	FAZ_32.jpg	FAZ_32.jpg	FAX_45.jpg
80.1781189442	1.863682031600007	face	0.569408893585	1.0	0.8	n/a	n/a	82.0418009758	82.0576570034	83.0433571339	n/a	MAZ_128.jpg	MAZ_101.jpg	MAZ_101.jpg
83.210062027	1.8329210280999888	face	0.703962802887	1.0	0.8	n/a	n/a	85.0429830551	85.058809042	86.0421950817	n/a	11F_AN_O.jpg	11F_AN_O.jpg	12F_AN_O.jpg
86.2102780342	1.831646919299999	face	0.718956947327	1.0	0.8	n/a	n/a	88.0419249535	88.0581231117	89.0413460732	n/a	26M_FE_O.jpg	33M_FE_O.jpg	33M_FE_O.jpg
89.1757860184	1.8644359111999904	face	0.718898057938	1.0	0.8	n/a	n/a	91.0402219296	91.0562720299	92.0400300026	n/a	MFZ_132.jpg	MFZ_132.jpg	MFZ_120.jpg
95.0901119709	1.9490921497000075	shape	0.871016979218	1.0	0.8	92.1228511333	95.0392990112	97.0392041206	97.0544610023	98.0384390354	n/a	circle.bmp	oval-vertical.bmp	oval-vertical.bmp
98.1660151482	1.8714139458000003	shape	0.591798067093	1.0	0.8	n/a	n/a	100.037429094	100.054419994	101.050276995	n/a	oval-horizontal.bmp	oval-horizontal.bmp	circle.bmp
101.168554068	1.865937947999996	shape	0.503208875656	1.0	0.8	n/a	n/a	103.034492016	103.051168919	104.03590703	n/a	oval-horizontal.bmp	oval-vertical.bmp	oval-vertical.bmp
104.169318914	1.866969108999996	shape	0.604341030121	1.0	0.8	n/a	n/a	106.036288023	106.053225994	107.036196947	n/a	oval-horizontal.bmp	circle.bmp	circle.bmp
107.154675007	1.8808989520000097	shape	0.51691699028	1.0	0.8	n/a	n/a	109.035573959	109.050925016	110.051147938	n/a	oval-horizontal.bmp	oval-horizontal.bmp	oval-vertical.bmp
110.168381929	1.8823490149999884	shape	0.566581010818	1.0	0.8	n/a	n/a	112.050730944	112.066609144	113.049587011	n/a	circle.bmp	circle.bmp	oval-vertical.bmp
116.10898304	1.940088986999996	face	0.744403839111	1.0	0.8	113.134135962	116.048748016	118.049072027	118.065391064	119.048238039	n/a	FAZ_23.jpg	FAZ_23.jpg	FAX_43.jpg
119.213025093	1.834383011	face	0.757490873337	1.0	0.8	n/a	n/a	121.047408104	121.064445972	122.044564962	n/a	26M_FE_O.jpg	26M_FE_O.jpg	27M_FE_O.BMP
122.181280136	1.8637349610000056	face	0.736314058304	1.0	0.8	n/a	n/a	124.045015097	124.061911106	125.04621911	n/a	MFZ_50.jpg	MFZ_50.jpg	MFX_16.jpg
125.213251114	1.8335540289999983	face	0.820544958115	1.0	0.8	n/a	n/a	127.046805143	127.063182116	128.045401096	n/a	10F_AN_O.jpg	09F_AN_O.jpg	09F_AN_O.jpg
128.197278976	1.8483271599999969	face	0.718384981155	1.0	0.8	n/a	n/a	130.045606136	130.062078953	131.044739962	n/a	38M_AN_O.BMP	39M_AN_O.jpg	39M_AN_O.jpg
131.19829011	1.845191002000007	face	0.702831029892	1.0	0.8	n/a	n/a	133.043481112	133.06073904	134.043004036	n/a	FFZ_102.jpg	FFX_130.jpg	FFX_130.jpg
137.085462093	1.9574470520000204	shape	0.5598320961	1.0	0.8	134.128631115	137.042699099	139.042909145	139.059281111	140.041990042	n/a	oval-horizontal.bmp	oval-horizontal.bmp	oval-vertical.bmp
140.170753002	1.870760918000002	shape	0.539036989212	1.0	0.8	n/a	n/a	142.04151392	142.05826807	143.041062117	n/a	oval-horizontal.bmp	oval-vertical.bmp	oval-vertical.bmp
143.171432018	1.86977005	shape	0.502846002579	1.0	0.8	n/a	n/a	145.041202068	145.057414055	146.040601015	n/a	circle.bmp	circle.bmp	oval-vertical.bmp
146.174354076	1.8657188420000068	shape	0.53720498085	1.0	0.8	n/a	n/a	148.040072918	148.057033062	149.039510012	n/a	circle.bmp	oval-vertical.bmp	oval-vertical.bmp
149.174380064	1.8649299140000155	shape	0.734107971191	1.0	0.8	n/a	n/a	151.039309978	151.054737091	152.037490129	n/a	oval-horizontal.bmp	circle.bmp	circle.bmp
152.172052145	1.865646838999993	shape	0.836153030396	1.0	0.8	n/a	n/a	154.037698984	154.054249048	155.037137032	n/a	oval-horizontal.bmp	oval-horizontal.bmp	circle.bmp
158.120552063	1.9156360630000224	face	1.44203686714	1.0	0.8	155.124509096	158.035799026	160.036188126	160.052386045	161.034559965	n/a	20M_FE_O.jpg	21M_FE_O.jpg	21M_FE_O.jpg
161.213974953	1.837707996000006	face	0.690565109253	1.0	0.8	n/a	n/a	163.051682949	163.068552971	164.047574997	n/a	01F_AN_O.jpg	07F_AN_O.jpg	07F_AN_O.jpg
164.198908091	1.852519989000001	face	0.635717868805	1.0	0.8	n/a	n/a	166.05142808	166.06724906	167.049974918	n/a	FFX_139.jpg	FFZ_102.jpg	FFZ_102.jpg
167.234076977	1.816272019999985	face	0.719810962677	1.0	0.8	n/a	n/a	169.050348997	169.06705904	170.049448013	n/a	23M_AN_O.jpg	23M_AN_O.jpg	22M_AN_O.jpg
170.199902058	1.849842071000012	face	0.702767133713	1.0	0.8	n/a	n/a	172.049744129	172.065438032	173.047739029	n/a	MAZ_146.jpg	MAZ_146.jpg	MAX_233.jpg
173.216211081	1.832206009999993	face	0.852241039276	1.0	0.8	n/a	n/a	175.048417091	175.064424992	176.047275066	n/a	15F_FE_O.jpg	15F_FE_O.jpg	16F_FE_O.jpg
179.097234011	1.9489519589999984	shape	0.843580961227	1.0	0.8	176.137995958	179.045855045	181.04618597	181.062762022	182.045666933	n/a	oval-horizontal.bmp	oval-vertical.bmp	oval-vertical.bmp
182.175107956	1.870244979999996	shape	0.640838861465	1.0	0.8	n/a	n/a	184.045352936	184.061687946	185.042179108	n/a	circle.bmp	oval-vertical.bmp	oval-vertical.bmp
185.176127911	1.8685011860000031	shape	0.58663392067	1.0	0.8	n/a	n/a	187.044629097	187.061483145	188.04409194	n/a	oval-horizontal.bmp	oval-horizontal.bmp	oval-vertical.bmp
188.177693129	1.866410970000004	shape	0.604679107666	1.0	0.8	n/a	n/a	190.044104099	190.060764074	191.043385029	n/a	oval-horizontal.bmp	oval-horizontal.bmp	circle.bmp
191.176717997	1.865883112000006	shape	0.669616937637	1.0	0.8	n/a	n/a	193.042601109	193.058762074	194.041585922	n/a	circle.bmp	circle.bmp	oval-vertical.bmp
194.176109076	1.865272045000012	shape	0.669295072556	1.0	0.8	n/a	n/a	196.041381121	196.058033943	197.041172028	n/a	oval-horizontal.bmp	circle.bmp	circle.bmp
200.107347965	1.9326009749999853	face	0.64354300499	1.0	0.8	197.134166002	200.039720058	202.03994894	202.055854082	203.03825593	n/a	FFX_54.jpg	FFX_54.jpg	FAX_51.jpg
203.204087973	1.834465026000004	face	0.540688991547	1.0	0.8	n/a	n/a	205.038552999	205.05566597	206.035372972	n/a	40M_FE_O.BMP	41M_FE_O.jpg	41M_FE_O.jpg
206.219316959	1.819039107000009	face	0.602677106857	1.0	0.8	n/a	n/a	208.038356066	208.054670095	209.037747145	n/a	29M_AN_O.jpg	29M_AN_O.jpg	28M_AN_O.jpg
209.189435959	1.8481540679999853	face	0.637048006058	1.0	0.8	n/a	n/a	211.037590027	211.054049969	212.036993027	n/a	FFZ_18.jpg	FFZ_29.jpg	FFZ_29.jpg
212.22149992	1.8150792120000008	face	0.734250068665	1.0	0.8	n/a	n/a	214.036579132	214.052151918	215.035476923	n/a	19F_AN_O.jpg	19F_AN_O.jpg	09F_AN_O.jpg
215.186259985	1.848340034000017	face	0.70303106308	1.0	0.8	n/a	n/a	217.034600019	217.051733017	218.034191132	n/a	MFZ_132.jpg	MFZ_7.jpg	MFZ_7.jpg
221.101696968	1.9478220940000028	shape	0.959112882614	1.0	0.8	218.132625103	221.049914122	223.049519062	223.066457987	224.049309015	n/a	circle.bmp	oval-vertical.bmp	oval-vertical.bmp
224.182837009	1.8632209310000007	shape	0.519426107407	1.0	0.8	n/a	n/a	226.04605794	226.061995983	227.045628071	n/a	oval-horizontal.bmp	oval-horizontal.bmp	circle.bmp
227.180422068	1.868265866999991	shape	0.486267089844	1.0	0.8	n/a	n/a	229.048687935	229.065521002	230.047860146	n/a	oval-horizontal.bmp	oval-vertical.bmp	oval-vertical.bmp
230.181019068	1.8666939729999967	shape	0.800173997879	1.0	0.8	n/a	n/a	232.047713041	232.064424038	233.047518015	n/a	oval-horizontal.bmp	circle.bmp	circle.bmp
233.180549145	1.865551948000018	shape	0.703775882721	1.0	0.8	n/a	n/a	235.046101093	235.062293053	236.045542002	n/a	oval-horizontal.bmp	oval-horizontal.bmp	oval-vertical.bmp
236.179944038	1.864679099	shape	0.685607910156	1.0	0.8	n/a	n/a	238.044623137	238.061875105	239.044538021	n/a	circle.bmp	circle.bmp	oval-vertical.bmp
242.127974987	1.9155931470000096	face	1.89278507233	1.0	0.8	239.141919136	242.043823004	244.043568134	244.060192108	245.042565107	n/a	20M_FE_O.jpg	21M_FE_O.jpg	21M_FE_O.jpg
245.222942114	1.815465926999991	face	0.603161096573	1.0	0.8	n/a	n/a	247.038408041	247.05548501	248.039804935	n/a	07F_AN_O.jpg	07F_AN_O.jpg	01F_AN_O.jpg
248.192816019	1.8494570260000105	face	0.819310188293	1.0	0.8	n/a	n/a	250.042273045	250.058166027	251.041187048	n/a	FFZ_102.jpg	FFZ_102.jpg	FFX_139.jpg
251.225306988	1.8159220219999952	face	1.25263810158	1.0	0.8	n/a	n/a	253.04122901	253.057454109	254.040519953	n/a	22M_AN_O.jpg	23M_AN_O.jpg	23M_AN_O.jpg
254.191328049	1.8477649690000248	face	0.603026151657	1.0	0.8	n/a	n/a	256.039093018	256.055647135	257.039175987	n/a	MAX_233.jpg	MAZ_146.jpg	MAZ_146.jpg
257.222895145	1.8158028130000048	face	0.766514062881	1.0	0.8	n/a	n/a	259.038697958	259.054731131	260.038448095	n/a	15F_FE_O.jpg	15F_FE_O.jpg	16F_FE_O.jpg
263.081310034	1.955863952000016	shape	0.609014987946	1.0	0.8	260.134740114	263.036791086	265.037173986	265.05330801	266.03591013	n/a	oval-horizontal.bmp	oval-horizontal.bmp	oval-vertical.bmp
266.170532942	1.8791949749999617	shape	0.536820173264	1.0	0.8	n/a	n/a	268.049727917	268.066745996	269.04935503	n/a	oval-horizontal.bmp	oval-vertical.bmp	oval-vertical.bmp
269.18406105	1.85164499299998	shape	0.421731948853	1.0	0.8	n/a	n/a	271.035706043	271.051988125	272.034932137	n/a	circle.bmp	circle.bmp	oval-vertical.bmp
272.169162989	1.865844965000008	shape	0.519582986832	1.0	0.8	n/a	n/a	274.035007954	274.051168919	275.050637007	n/a	circle.bmp	oval-vertical.bmp	oval-vertical.bmp
275.184350014	1.8658719059999955	shape	0.619139909744	1.0	0.8	n/a	n/a	277.05022192	277.066211939	278.049149036	n/a	oval-horizontal.bmp	circle.bmp	circle.bmp
278.183527946	1.865506172999972	shape	0.618578910828	1.0	0.8	n/a	n/a	280.049034119	280.064929008	281.048397064	n/a	oval-horizontal.bmp	oval-horizontal.bmp	circle.bmp
284.11489892	1.9318780900000547	face	0.678802967072	1.0	0.8	281.148265123	284.04738903	286.04677701	286.063821077	287.046822071	n/a	FFZ_18.jpg	FAZ_129.jpg	FAZ_129.jpg
287.242954016	1.8004310129999794	face	1.53847312927	1.0	0.8	n/a	n/a	289.043385029	289.060497046	290.043767929	n/a	20M_FE_O.jpg	24M_FE_O.jpg	24M_FE_O.jpg
290.211236	1.8346800799999985	face	0.704148054123	1.0	0.8	n/a	n/a	292.04591608	292.062544107	293.044803143	n/a	FAZ_23.jpg	FAX_25.jpg	FAX_25.jpg
293.228862047	1.814972877999992	face	0.769695997238	1.0	0.8	n/a	n/a	295.043834925	295.061273098	296.043883085	n/a	33M_FE_O.jpg	33M_FE_O.jpg	35M_FE_O.jpg
296.228110075	1.8160519599999816	face	0.919479846954	1.0	0.8	n/a	n/a	298.044162035	298.060424089	299.043060064	n/a	01F_AN_O.jpg	01F_AN_O.jpg	02F_AN_O.jpg
299.201623917	1.8413770199999813	face	0.713492870331	1.0	0.8	n/a	n/a	301.043000937	301.058695078	302.041223049	n/a	MFZ_132.jpg	MFZ_132.jpg	MFZ_120.jpg
305.09244895	1.9488101000000029	shape	0.74228811264	1.0	0.8	302.145944118	305.040966988	307.04125905	307.057215929	308.04026103	n/a	oval-horizontal.bmp	oval-vertical.bmp	oval-vertical.bmp
308.187520981	1.849928140000032	shape	0.60484290123	1.0	0.8	n/a	n/a	310.037449121	310.053089142	311.036606073	n/a	circle.bmp	oval-vertical.bmp	oval-vertical.bmp
311.188594103	1.851222038000003	shape	0.62093091011	1.0	0.8	n/a	n/a	313.039816141	313.05597806	314.038037062	n/a	oval-horizontal.bmp	oval-horizontal.bmp	oval-vertical.bmp
314.190290928	1.847798108999996	shape	0.60162115097	1.0	0.8	n/a	n/a	316.038089037	316.054706097	317.037431002	n/a	oval-horizontal.bmp	oval-horizontal.bmp	circle.bmp
317.175225973	1.8609831329999904	shape	0.565533161163	1.0	0.8	n/a	n/a	319.036209106	319.053497076	320.035840034	n/a	circle.bmp	circle.bmp	oval-vertical.bmp
320.170160055	1.8661508559999904	shape	0.433717012405	1.0	0.8	n/a	n/a	322.036310911	322.053055048	323.035371065	n/a	oval-horizontal.bmp	circle.bmp	circle.bmp
326.145530939	1.90536999699998	face	1.00951004028	1.0	0.8	323.141554117	326.051275969	328.050900936	328.066604137	329.049760103	n/a	17F_FE_O.jpg	18F_FE_O.jpg	18F_FE_O.jpg
329.234703064	1.812298059	face	0.653189182281	1.0	0.8	n/a	n/a	331.047001123	331.064307928	332.049694061	n/a	42M_AN_O.jpg	43M_AN_O.jpg	43M_AN_O.jpg
332.249191999	1.800349950999987	face	0.788662910461	1.0	0.8	n/a	n/a	334.04954195	334.066069126	335.04876399	n/a	31M_FE_O.jpg	31M_FE_O.jpg	32M_FE_O.jpg
335.216709137	1.8315927979999744	face	0.685050010681	1.0	0.8	n/a	n/a	337.048301935	337.065423012	338.047877073	n/a	FAZ_212.jpg	FFZ_236.jpg	FFZ_236.jpg
338.24904108	1.7976129060000403	face	0.568807840347	1.0	0.8	n/a	n/a	340.046653986	340.06380105	341.046493053	n/a	06F_FE_O.jpg	06F_FE_O.jpg	08F_FE_O.jpg
341.213732958	1.8322861190000024	face	0.719610929489	1.0	0.8	n/a	n/a	343.046019077	343.062878132	344.045409918	n/a	MAZ_128.jpg	MAZ_128.jpg	MAX_39.jpg
347.089076996	1.9553639889999768	shape	0.691726922989	1.0	0.8	344.153105974	347.044664145	349.044440985	349.061257124	350.043774128	n/a	circle.bmp	oval-vertical.bmp	oval-vertical.bmp
350.191256046	1.8502359390000152	shape	0.603035926819	1.0	0.8	n/a	n/a	352.041491985	352.057780981	353.042671919	n/a	oval-horizontal.bmp	oval-horizontal.bmp	circle.bmp
353.192829132	1.850200892000032	shape	0.604920148849	1.0	0.8	n/a	n/a	355.043030024	355.059607983	356.04156208	n/a	oval-horizontal.bmp	oval-vertical.bmp	oval-vertical.bmp
356.193264961	1.8490960599999653	shape	0.602575778961	1.0	0.8	n/a	n/a	358.042361021	358.058175087	359.040358067	n/a	oval-horizontal.bmp	circle.bmp	circle.bmp
359.179028988	1.8621790409999903	shape	0.600210905075	1.0	0.8	n/a	n/a	361.041208029	361.057394981	362.039968014	n/a	oval-horizontal.bmp	oval-horizontal.bmp	oval-vertical.bmp
362.190642118	1.8495628839999647	shape	0.753015041351	1.0	0.8	n/a	n/a	364.040205002	364.056347132	365.038579941	n/a	circle.bmp	circle.bmp	oval-vertical.bmp
368.099432945	1.938623189999987	face	1.27483010292	1.0	0.8	365.149692059	368.03818512	370.038056135	370.054145098	371.05001092	n/a	FFZ_18.jpg	FAZ_129.jpg	FAZ_129.jpg
371.251496077	1.783797978999985	face	1.33601808548	1.0	0.8	n/a	n/a	373.035294056	373.051551104	374.036800146	n/a	20M_FE_O.jpg	24M_FE_O.jpg	24M_FE_O.jpg
374.202780962	1.833861112999955	face	0.686815977097	1.0	0.8	n/a	n/a	376.036642075	376.052740097	377.035789967	n/a	FAZ_23.jpg	FAX_25.jpg	FAX_25.jpg
377.220449924	1.8145661359999965	face	0.684884786606	1.0	0.8	n/a	n/a	379.03501606	379.051635027	380.034444094	n/a	33M_FE_O.jpg	33M_FE_O.jpg	35M_FE_O.jpg
380.235903025	1.8146479129999875	face	0.71754693985	1.0	0.8	n/a	n/a	382.050550938	382.066813946	383.049880981	n/a	01F_AN_O.jpg	01F_AN_O.jpg	02F_AN_O.jpg
383.21826911	1.8318829529999905	face	0.620007991791	1.0	0.8	n/a	n/a	385.050152063	385.06615591	386.049688101	394.447195053	MFZ_132.jpg	MFZ_132.jpg	MFZ_120.jpg
