onset	duration	trial_type	response_time	accuracy_binarized	tr_seconds	cueStartTime	cueEndTime	trialEndTime	fixStartTime	fixEndTime	runEndTime	stimLeft	stimTop	stimRight
11.0634918213	1.970155954400001	shape	1.31858706474	1.0	0.8	8.02677798271	11.0172688961	13.0336477757	13.0382089615	14.0326159	n/a	oval-horizontal.bmp	oval-horizontal.bmp	oval-vertical.bmp
14.1511747837	1.8817532063000009	shape	1.08782482147	1.0	0.8	n/a	n/a	16.03292799	16.0370137691	17.0326359272	n/a	oval-horizontal.bmp	oval-vertical.bmp	oval-vertical.bmp
17.1318137646	1.9007050990999976	shape	0.837084054947	1.0	0.8	n/a	n/a	19.0325188637	19.0363087654	20.0321888924	n/a	circle.bmp	circle.bmp	oval-vertical.bmp
20.12940979	1.9028019904999989	shape	0.656032085419	1.0	0.8	n/a	n/a	22.0322117805	22.0358150005	23.0317618847	n/a	circle.bmp	oval-vertical.bmp	oval-vertical.bmp
23.1298019886	1.9020338057999984	shape	0.788192987442	1.0	0.8	n/a	n/a	25.0318357944	25.0354337692	26.0317308903	n/a	oval-horizontal.bmp	circle.bmp	circle.bmp
26.1304268837	1.9015579223999983	shape	0.987298965454	1.0	0.8	n/a	n/a	28.0319848061	28.0359587669	29.0310249329	n/a	oval-horizontal.bmp	oval-horizontal.bmp	circle.bmp
32.0994169712	1.932026863099999	face	1.01993703842	1.0	0.8	29.1048898697	32.0314188004	34.0314438343	34.035984993	35.029668808	n/a	FAZ_23.jpg	FAZ_23.jpg	FAX_43.jpg
35.1707789898	1.8596839905000024	face	0.886059045792	1.0	0.8	n/a	n/a	37.0304629803	37.034100771	38.0298109055	n/a	26M_FE_O.jpg	26M_FE_O.jpg	27M_FE_O.BMP
38.1523499489	1.8781168460999995	face	0.769948005676	1.0	0.8	n/a	n/a	40.030466795	40.0345289707	41.0296468735	n/a	MFX_16.jpg	MFZ_50.jpg	MFZ_50.jpg
41.1857099533	1.8444669247000007	face	1.13691496849	1.0	0.8	n/a	n/a	43.030176878	43.0338099003	44.0294489861	n/a	09F_AN_O.jpg	09F_AN_O.jpg	10F_AN_O.jpg
44.1641039848	1.8656589985000025	face	1.30267691612	1.0	0.8	n/a	n/a	46.0297629833	46.0334188938	47.029006958	n/a	38M_AN_O.BMP	39M_AN_O.jpg	39M_AN_O.jpg
47.1474509239	1.8820269108000005	face	1.48754096031	1.0	0.8	n/a	n/a	49.0294778347	49.0331749916	50.0290708542	n/a	FFZ_102.jpg	FFX_130.jpg	FFX_130.jpg
53.0668339729	1.961399793700004	shape	1.48527312279	1.0	0.8	50.1065928936	53.0289218426	55.0282337666	55.0328068733	56.0274307728	n/a	oval-horizontal.bmp	oval-vertical.bmp	oval-vertical.bmp
56.1260547638	1.9027972220999985	shape	0.769337892532	1.0	0.8	n/a	n/a	58.0288519859	58.0327768326	59.0274708271	n/a	circle.bmp	oval-vertical.bmp	oval-vertical.bmp
59.1275877953	1.9003300665999987	shape	0.856538057327	1.0	0.8	n/a	n/a	61.0279178619	61.0314807892	62.027397871	n/a	oval-horizontal.bmp	oval-horizontal.bmp	oval-vertical.bmp
62.1272418499	1.8994450568999923	shape	0.770873069763	1.0	0.8	n/a	n/a	64.0266869068	64.0303459167	65.0271699429	n/a	oval-horizontal.bmp	oval-horizontal.bmp	circle.bmp
65.1292068958	1.8986768723000007	shape	0.97040104866	1.0	0.8	n/a	n/a	67.0278837681	67.0316047668	68.0265448093	n/a	circle.bmp	circle.bmp	oval-vertical.bmp
68.1280798912	1.8987278938000005	shape	0.671099185944	1.0	0.8	n/a	n/a	70.026807785	70.0304069519	71.0262517929	n/a	oval-horizontal.bmp	circle.bmp	circle.bmp
74.1170139313	1.909533977500004	face	1.00424909592	1.0	0.8	71.1042659283	74.0259587765	76.0265479088	76.0314948559	77.0257389545	n/a	03F_FE_O.jpg	05F_FE_O.jpg	05F_FE_O.jpg
77.1472659111	1.8787879944	face	1.13719797134	1.0	0.8	n/a	n/a	79.0260539055	79.0296709538	80.025387764	n/a	FAZ_32.jpg	FAZ_32.jpg	FAX_45.jpg
80.14990592	1.8756768703999995	face	1.51931023598	1.0	0.8	n/a	n/a	82.0255827904	82.0292239189	83.0252149105	n/a	MAZ_128.jpg	MAZ_101.jpg	MAZ_101.jpg
83.1749019623	1.850510835600005	face	1.05247092247	1.0	0.8	n/a	n/a	85.0254127979	85.0291287899	86.0247569084	n/a	11F_AN_O.jpg	11F_AN_O.jpg	12F_AN_O.jpg
86.1695439816	1.855225801399996	face	0.931014060974	1.0	0.8	n/a	n/a	88.024769783	88.0286178589	89.0244879723	n/a	26M_FE_O.jpg	33M_FE_O.jpg	33M_FE_O.jpg
89.1504018307	1.8743939398999885	face	1.03086209297	1.0	0.8	n/a	n/a	91.0247957706	91.0282487869	92.0232927799	n/a	MFZ_132.jpg	MFZ_132.jpg	MFZ_120.jpg
95.0610618591	1.962992906600008	shape	0.870151996613	1.0	0.8	92.1028017998	95.0236628056	97.0240547657	97.0289227962	98.0233128071	n/a	circle.bmp	oval-vertical.bmp	oval-vertical.bmp
98.1264979839	1.8960440161000065	shape	0.786043167114	1.0	0.8	n/a	n/a	100.022542	100.026717901	101.023476839	n/a	oval-horizontal.bmp	oval-horizontal.bmp	circle.bmp
101.130768776	1.893107176000001	shape	1.13619208336	1.0	0.8	n/a	n/a	103.023875952	103.027411938	104.023344994	n/a	oval-horizontal.bmp	oval-vertical.bmp	oval-vertical.bmp
104.125691891	1.8972439759999984	shape	0.870687007904	1.0	0.8	n/a	n/a	106.022935867	106.026651859	107.02202487	n/a	oval-horizontal.bmp	circle.bmp	circle.bmp
107.125090837	1.897578002000003	shape	0.721097946167	1.0	0.8	n/a	n/a	109.022668839	109.026429892	110.022053957	n/a	oval-horizontal.bmp	oval-horizontal.bmp	oval-vertical.bmp
110.127840996	1.8941109179999955	shape	0.88734292984	1.0	0.8	n/a	n/a	112.021951914	112.025924921	113.02159977	n/a	circle.bmp	circle.bmp	oval-vertical.bmp
116.079190969	1.9432950019999995	face	0.920545101166	1.0	0.8	113.102850914	116.021210909	118.022485971	118.027016878	119.021146774	n/a	FAZ_23.jpg	FAZ_23.jpg	FAX_43.jpg
119.154053926	1.8674089909999907	face	0.811625003815	1.0	0.8	n/a	n/a	121.021462917	121.025305986	122.021012783	n/a	26M_FE_O.jpg	26M_FE_O.jpg	27M_FE_O.BMP
122.143146992	1.878625869000004	face	0.804206132889	1.0	0.8	n/a	n/a	124.021772861	124.025900841	125.020340919	n/a	MFZ_50.jpg	MFZ_50.jpg	MFX_16.jpg
125.171158791	1.8497622010000043	face	0.999840021133	1.0	0.8	n/a	n/a	127.020920992	127.024721861	128.019833803	n/a	10F_AN_O.jpg	09F_AN_O.jpg	09F_AN_O.jpg
128.153960943	1.8666670320000087	face	0.777442932129	1.0	0.8	n/a	n/a	130.020627975	130.024306774	131.019596815	n/a	38M_AN_O.BMP	39M_AN_O.jpg	39M_AN_O.jpg
131.14288187	1.8780269629999964	face	0.803397893906	1.0	0.8	n/a	n/a	133.020908833	133.024579763	134.019837856	n/a	FFZ_102.jpg	FFX_130.jpg	FFX_130.jpg
137.057048798	1.962740181999976	shape	0.935086965561	1.0	0.8	134.101574898	137.019491911	139.01978898	139.024277925	140.018811941	n/a	oval-horizontal.bmp	oval-horizontal.bmp	oval-vertical.bmp
140.126203775	1.8925971989999937	shape	1.16703391075	1.0	0.8	n/a	n/a	142.018800974	142.022399902	143.018288851	n/a	oval-horizontal.bmp	oval-vertical.bmp	oval-vertical.bmp
143.123428822	1.895056009000001	shape	0.937407016754	1.0	0.8	n/a	n/a	145.018484831	145.022126913	146.017849922	n/a	circle.bmp	circle.bmp	oval-vertical.bmp
146.125314951	1.8926908969999945	shape	0.787281036377	1.0	0.8	n/a	n/a	148.018005848	148.021866798	149.018308878	n/a	circle.bmp	oval-vertical.bmp	oval-vertical.bmp
149.125815868	1.891585112000001	shape	1.00167012215	1.0	0.8	n/a	n/a	151.01740098	151.020962954	152.017620802	n/a	oval-horizontal.bmp	circle.bmp	circle.bmp
152.124307871	1.8934481139999944	shape	1.18762016296	1.0	0.8	n/a	n/a	154.017755985	154.021408796	155.016836882	n/a	oval-horizontal.bmp	oval-horizontal.bmp	circle.bmp
158.098220825	1.91915011399999	face	1.55697393417	1.0	0.8	155.103033781	158.017089844	160.017370939	160.022236824	161.016610861	n/a	20M_FE_O.jpg	21M_FE_O.jpg	21M_FE_O.jpg
161.174055815	1.843436956000005	face	0.803421974182	1.0	0.8	n/a	n/a	163.017492771	163.021140814	164.017158985	n/a	01F_AN_O.jpg	07F_AN_O.jpg	07F_AN_O.jpg
164.145679951	1.887298821999991	face	0.870219945908	1.0	0.8	n/a	n/a	166.032978773	166.036401987	167.032197952	n/a	FFX_139.jpg	FFZ_102.jpg	FFZ_102.jpg
167.18839097	1.844496012000008	face	1.00273609161	1.0	0.8	n/a	n/a	169.032886982	169.036550999	170.031785965	n/a	23M_AN_O.jpg	23M_AN_O.jpg	22M_AN_O.jpg
170.157781839	1.874364138000004	face	0.804904937744	1.0	0.8	n/a	n/a	172.032145977	172.035833836	173.031714916	n/a	MAZ_146.jpg	MAZ_146.jpg	MAX_233.jpg
173.181800842	1.8501019480000025	face	1.67032504082	1.0	0.8	n/a	n/a	175.03190279	175.035514832	176.031300783	n/a	15F_FE_O.jpg	15F_FE_O.jpg	16F_FE_O.jpg
179.069518805	1.961848973999992	shape	1.10517811775	1.0	0.8	176.116119862	179.031287909	181.031367779	181.035943985	182.030466795	n/a	oval-horizontal.bmp	oval-vertical.bmp	oval-vertical.bmp
182.138862848	1.8917429450000045	shape	0.586687088013	1.0	0.8	n/a	n/a	184.030605793	184.03460288	185.030412912	n/a	circle.bmp	oval-vertical.bmp	oval-vertical.bmp
185.142315865	1.888663052999988	shape	0.687515974045	1.0	0.8	n/a	n/a	187.030978918	187.034655809	188.030214787	n/a	oval-horizontal.bmp	oval-horizontal.bmp	oval-vertical.bmp
188.139735937	1.890360831999999	shape	0.588446140289	1.0	0.8	n/a	n/a	190.030096769	190.033969879	191.029684782	n/a	oval-horizontal.bmp	oval-horizontal.bmp	circle.bmp
191.141241789	1.8892660140000144	shape	0.803540945053	1.0	0.8	n/a	n/a	193.030507803	193.034111977	194.02905798	n/a	circle.bmp	circle.bmp	oval-vertical.bmp
194.137959957	1.891537905000007	shape	0.769984960556	1.0	0.8	n/a	n/a	196.029497862	196.033564806	197.028986931	n/a	oval-horizontal.bmp	circle.bmp	circle.bmp
200.087179899	1.9419989589999889	face	0.953515052795	1.0	0.8	197.119188786	200.028603792	202.029178858	202.033928871	203.028763771	n/a	FFX_54.jpg	FFX_54.jpg	FAX_51.jpg
203.169009924	1.8596608640000056	face	0.618911027908	1.0	0.8	n/a	n/a	205.028670788	205.032298803	206.027357817	n/a	40M_FE_O.BMP	41M_FE_O.jpg	41M_FE_O.jpg
206.182406902	1.8457119470000125	face	0.73628115654	1.0	0.8	n/a	n/a	208.028118849	208.032111883	209.027333975	n/a	29M_AN_O.jpg	29M_AN_O.jpg	28M_AN_O.jpg
209.159520864	1.8683700569999928	face	0.934649944305	1.0	0.8	n/a	n/a	211.027890921	211.031487942	212.026852846	n/a	FFZ_18.jpg	FFZ_29.jpg	FFZ_29.jpg
212.183035851	1.844736098999988	face	0.736503124237	1.0	0.8	n/a	n/a	214.02777195	214.031455994	215.027046919	n/a	19F_AN_O.jpg	19F_AN_O.jpg	09F_AN_O.jpg
215.154130936	1.873400925999988	face	0.635822057724	1.0	0.8	n/a	n/a	217.027531862	217.030967951	218.027220964	n/a	MFZ_132.jpg	MFZ_7.jpg	MFZ_7.jpg
221.063575983	1.963169813000008	shape	0.668803930283	1.0	0.8	218.115170956	221.026217937	223.026745796	223.031239986	224.025565863	n/a	circle.bmp	oval-vertical.bmp	oval-vertical.bmp
224.145016909	1.88100504800002	shape	0.753082036972	1.0	0.8	n/a	n/a	226.026021957	226.029593945	227.025528908	n/a	oval-horizontal.bmp	oval-horizontal.bmp	circle.bmp
227.141227961	1.8851349349999964	shape	1.06932282448	1.0	0.8	n/a	n/a	229.026362896	229.029980898	230.024959803	n/a	oval-horizontal.bmp	oval-vertical.bmp	oval-vertical.bmp
230.137183905	1.8886740199999963	shape	0.750557899475	1.0	0.8	n/a	n/a	232.025857925	232.029849768	233.024771929	n/a	oval-horizontal.bmp	circle.bmp	circle.bmp
233.137662888	1.887808084	shape	0.636858940125	1.0	0.8	n/a	n/a	235.025470972	235.028917789	236.02410078	n/a	oval-horizontal.bmp	oval-horizontal.bmp	oval-vertical.bmp
236.135824919	1.8893489840000088	shape	0.717249155045	1.0	0.8	n/a	n/a	238.025173903	238.02874589	239.024775982	n/a	circle.bmp	circle.bmp	oval-vertical.bmp
242.106505871	1.9175369740000008	face	1.00021314621	1.0	0.8	239.114354849	242.024251938	244.024042845	244.028772831	245.023446798	n/a	20M_FE_O.jpg	21M_FE_O.jpg	21M_FE_O.jpg
245.179232836	1.8451330659999885	face	0.717073917389	1.0	0.8	n/a	n/a	247.024365902	247.028053999	248.02349782	n/a	07F_AN_O.jpg	07F_AN_O.jpg	01F_AN_O.jpg
248.152871847	1.870708943000011	face	0.981950998306	1.0	0.8	n/a	n/a	250.02358079	250.027181864	251.022861958	n/a	FFZ_102.jpg	FFZ_102.jpg	FFX_139.jpg
251.177564859	1.845412016000012	face	0.587095022202	1.0	0.8	n/a	n/a	253.022976875	253.026647806	254.02252388	n/a	22M_AN_O.jpg	23M_AN_O.jpg	23M_AN_O.jpg
254.154047966	1.8690719599999848	face	0.61942076683	1.0	0.8	n/a	n/a	256.023119926	256.026811838	257.022116899	n/a	MAX_233.jpg	MAZ_146.jpg	MAZ_146.jpg
257.178110838	1.8445520399999964	face	0.854132890701	1.0	0.8	n/a	n/a	259.022662878	259.02627182	260.021276951	n/a	15F_FE_O.jpg	15F_FE_O.jpg	16F_FE_O.jpg
263.061191797	1.9607481959999973	shape	0.787676095963	1.0	0.8	260.114262819	263.021459818	265.021939993	265.026438951	266.021505833	n/a	oval-horizontal.bmp	oval-horizontal.bmp	oval-vertical.bmp
266.140074968	1.88817596499996	shape	0.629864931107	1.0	0.8	n/a	n/a	268.028250933	268.031850815	269.027877808	n/a	oval-horizontal.bmp	oval-vertical.bmp	oval-vertical.bmp
269.145537853	1.8851869110000048	shape	0.817693948746	1.0	0.8	n/a	n/a	271.030724764	271.034422874	272.029463768	n/a	circle.bmp	circle.bmp	oval-vertical.bmp
272.147310972	1.874002933999975	shape	0.796950101852	1.0	0.8	n/a	n/a	274.021313906	274.02520895	275.02022481	n/a	circle.bmp	oval-vertical.bmp	oval-vertical.bmp
275.140172958	1.8803529740000045	shape	0.720376968384	1.0	0.8	n/a	n/a	277.020525932	277.024188995	278.019794941	n/a	oval-horizontal.bmp	circle.bmp	circle.bmp
278.137092829	1.882997036000006	shape	0.771174907684	1.0	0.8	n/a	n/a	280.020089865	280.023952961	281.019435883	n/a	oval-horizontal.bmp	oval-horizontal.bmp	circle.bmp
284.080620766	1.939210176000017	face	0.778131008148	1.0	0.8	281.112568855	284.019459963	286.019830942	286.024505854	287.019055843	n/a	FFZ_18.jpg	FAZ_129.jpg	FAZ_129.jpg
287.178863764	1.8404610159999493	face	0.878865003586	1.0	0.8	n/a	n/a	289.01932478	289.022983789	290.018456936	n/a	20M_FE_O.jpg	24M_FE_O.jpg	24M_FE_O.jpg
290.154472828	1.8645401	face	0.686549186707	1.0	0.8	n/a	n/a	292.019012928	292.022716999	293.018248796	n/a	FAZ_23.jpg	FAX_25.jpg	FAX_25.jpg
293.175895929	1.8427519800000027	face	0.836765050888	1.0	0.8	n/a	n/a	295.018647909	295.022275925	296.018108845	n/a	33M_FE_O.jpg	33M_FE_O.jpg	35M_FE_O.jpg
296.188239813	1.830114126000012	face	1.48691010475	1.0	0.8	n/a	n/a	298.018353939	298.022117853	299.018170834	n/a	01F_AN_O.jpg	01F_AN_O.jpg	02F_AN_O.jpg
299.155463934	1.8624780179999905	face	0.932986021042	1.0	0.8	n/a	n/a	301.017941952	301.021438837	302.017098904	n/a	MFZ_132.jpg	MFZ_132.jpg	MFZ_120.jpg
305.066968918	1.9607219690000195	shape	0.787347078323	1.0	0.8	302.111158848	305.027467966	307.027690887	307.032304764	308.027495861	n/a	oval-horizontal.bmp	oval-vertical.bmp	oval-vertical.bmp
308.149179935	1.8782799250000155	shape	0.639312028885	1.0	0.8	n/a	n/a	310.02745986	310.031073809	311.02785182	n/a	circle.bmp	oval-vertical.bmp	oval-vertical.bmp
311.145406961	1.8821280010000123	shape	0.753463029861	1.0	0.8	n/a	n/a	313.027534962	313.031214952	314.027122974	n/a	oval-horizontal.bmp	oval-horizontal.bmp	oval-vertical.bmp
314.146671772	1.8810510640000189	shape	0.670706033707	1.0	0.8	n/a	n/a	316.027722836	316.031555891	317.027324915	n/a	oval-horizontal.bmp	oval-horizontal.bmp	circle.bmp
317.148481846	1.879249096000024	shape	0.770803928375	1.0	0.8	n/a	n/a	319.027730942	319.031312943	320.031473875	n/a	circle.bmp	circle.bmp	oval-vertical.bmp
320.153058767	1.8789961339999763	shape	0.752291917801	1.0	0.8	n/a	n/a	322.032054901	322.035656929	323.031426907	n/a	oval-horizontal.bmp	circle.bmp	circle.bmp
326.118927956	1.9135189049999888	face	1.0868139267	1.0	0.8	323.129349947	326.0312078	328.032446861	328.036958933	329.031450987	n/a	17F_FE_O.jpg	18F_FE_O.jpg	18F_FE_O.jpg
329.190387964	1.84091687199998	face	0.95676612854	1.0	0.8	n/a	n/a	331.031304836	331.03507185	332.030162811	n/a	42M_AN_O.jpg	43M_AN_O.jpg	43M_AN_O.jpg
332.189779997	1.8415098190000088	face	0.889412879944	1.0	0.8	n/a	n/a	334.031289816	334.03480792	335.029970884	n/a	31M_FE_O.jpg	31M_FE_O.jpg	32M_FE_O.jpg
335.169169903	1.8614759440000053	face	0.721069097519	1.0	0.8	n/a	n/a	337.030645847	337.034307957	338.029786825	n/a	FAZ_212.jpg	FFZ_236.jpg	FFZ_236.jpg
338.197373867	1.83281397799999	face	0.923376083374	1.0	0.8	n/a	n/a	340.030187845	340.033801794	341.029306889	n/a	06F_FE_O.jpg	06F_FE_O.jpg	08F_FE_O.jpg
341.169951916	1.859969853999985	face	1.12091898918	1.0	0.8	n/a	n/a	343.02992177	343.033662796	344.0298419	n/a	MAZ_128.jpg	MAZ_128.jpg	MAX_39.jpg
347.066030979	1.96392989200001	shape	0.926139831543	1.0	0.8	344.130389929	347.028829813	349.029960871	349.034472942	350.028490782	n/a	circle.bmp	oval-vertical.bmp	oval-vertical.bmp
350.150699854	1.877990006999994	shape	0.805337905884	1.0	0.8	n/a	n/a	352.028689861	352.032679796	353.028054953	n/a	oval-horizontal.bmp	oval-horizontal.bmp	circle.bmp
353.148875952	1.8790650369999755	shape	1.33832502365	1.0	0.8	n/a	n/a	355.027940989	355.031560898	356.027814865	n/a	oval-horizontal.bmp	oval-vertical.bmp	oval-vertical.bmp
356.152870893	1.8751959809999903	shape	0.78760099411	1.0	0.8	n/a	n/a	358.028066874	358.03173399	359.027341843	n/a	oval-horizontal.bmp	circle.bmp	circle.bmp
359.150335789	1.8772470950000293	shape	0.986287117004	1.0	0.8	n/a	n/a	361.027582884	361.031454802	362.026963949	n/a	oval-horizontal.bmp	oval-horizontal.bmp	oval-vertical.bmp
362.150645971	1.8768179420000024	shape	1.55348110199	1.0	0.8	n/a	n/a	364.027463913	364.031469822	365.026575804	n/a	circle.bmp	circle.bmp	oval-vertical.bmp
368.087105989	1.9399588109999968	face	0.769763946533	1.0	0.8	365.125150919	368.026454926	370.0270648	370.031618834	371.026490927	n/a	FFZ_18.jpg	FAZ_129.jpg	FAZ_129.jpg
371.197265863	1.829848050999999	face	1.4374320507	1.0	0.8	n/a	n/a	373.027113914	373.030828953	374.026262999	n/a	20M_FE_O.jpg	24M_FE_O.jpg	24M_FE_O.jpg
374.169227839	1.856897115000038	face	0.653068065643	1.0	0.8	n/a	n/a	376.026124954	376.030134916	377.025026798	n/a	FAZ_23.jpg	FAX_25.jpg	FAX_25.jpg
377.190506935	1.835368872000004	face	0.669703960419	1.0	0.8	n/a	n/a	379.025875807	379.029332876	380.024661779	n/a	33M_FE_O.jpg	33M_FE_O.jpg	35M_FE_O.jpg
380.191824913	1.8336799140000155	face	0.903568029404	1.0	0.8	n/a	n/a	382.025504827	382.029066801	383.024860859	n/a	01F_AN_O.jpg	01F_AN_O.jpg	02F_AN_O.jpg
383.170796871	1.8543651109999928	face	0.804044961929	1.0	0.8	n/a	n/a	385.025161982	385.028845787	386.024667978	394.423375845	MFZ_132.jpg	MFZ_132.jpg	MFZ_120.jpg
