onset	duration	trial_type	response_time	accuracy_binarized	tr_seconds	cueStartTime	cueEndTime	trialEndTime	fixStartTime	fixEndTime	runEndTime	stimLeft	stimTop	stimRight
11.063117981	1.968091964700001	shape	0.968585014343	1.0	0.8	8.02514314651	11.0152790546	13.0312099457	13.0359270573	14.0306711197	n/a	oval-horizontal.bmp	oval-horizontal.bmp	oval-vertical.bmp
14.139840126	1.8908309937	shape	1.15137290955	1.0	0.8	n/a	n/a	16.0306711197	16.0346860886	17.0301401615	n/a	oval-horizontal.bmp	oval-vertical.bmp	oval-vertical.bmp
17.1301159859	1.9006450175999987	shape	1.10277318954	1.0	0.8	n/a	n/a	19.0307610035	19.0343630314	20.0295989513	n/a	circle.bmp	circle.bmp	oval-vertical.bmp
20.1291041374	1.9013419152	shape	0.786404132843	1.0	0.8	n/a	n/a	22.0304460526	22.0340640545	23.0294909477	n/a	circle.bmp	oval-vertical.bmp	oval-vertical.bmp
23.1306610107	1.8991799355000007	shape	0.970329046249	1.0	0.8	n/a	n/a	25.0298409462	25.0334861279	26.0286409855	n/a	oval-horizontal.bmp	circle.bmp	circle.bmp
26.1301031113	1.8989789486	shape	0.886653900146	1.0	0.8	n/a	n/a	28.0290820599	28.0331411362	29.0286700726	n/a	oval-horizontal.bmp	oval-horizontal.bmp	circle.bmp
32.0933730602	1.9360060691999976	face	1.10315108299	1.0	0.8	29.1038861275	32.0286099911	34.0293791294	34.0339009762	35.028151989	n/a	FAZ_23.jpg	FAZ_23.jpg	FAX_43.jpg
35.1692509651	1.8596951962000008	face	0.903029918671	1.0	0.8	n/a	n/a	37.0289461613	37.0325930119	38.0278639793	n/a	26M_FE_O.jpg	26M_FE_O.jpg	27M_FE_O.BMP
38.1501891613	1.8776288032999984	face	0.92033290863	1.0	0.8	n/a	n/a	40.0278179646	40.0317211151	41.0270731449	n/a	MFX_16.jpg	MFZ_50.jpg	MFZ_50.jpg
41.1814081669	1.846865892400004	face	0.95331287384	1.0	0.8	n/a	n/a	43.0282740593	43.0318911076	44.0262789726	n/a	09F_AN_O.jpg	09F_AN_O.jpg	10F_AN_O.jpg
44.1622099876	1.8655350208999977	face	0.887098073959	1.0	0.8	n/a	n/a	46.0277450085	46.0314109325	47.0273230076	n/a	38M_AN_O.BMP	39M_AN_O.jpg	39M_AN_O.jpg
47.1513569355	1.8754210472	face	0.8355281353	1.0	0.8	n/a	n/a	49.0267779827	49.0306460857	50.0265369415	n/a	FFZ_102.jpg	FFX_130.jpg	FFX_130.jpg
53.0639481544	1.9625668525999984	shape	0.985992908478	1.0	0.8	50.102617979	53.0260519981	55.026515007	55.031165123	56.0252840519	n/a	oval-horizontal.bmp	oval-vertical.bmp	oval-vertical.bmp
56.1302709579	1.8954241275999948	shape	0.73698091507	1.0	0.8	n/a	n/a	58.0256950855	58.0297520161	59.0251979828	n/a	circle.bmp	oval-vertical.bmp	oval-vertical.bmp
59.1308879852	1.895014047700002	shape	0.687551021576	1.0	0.8	n/a	n/a	61.0259020329	61.0295610428	62.0255310535	n/a	oval-horizontal.bmp	oval-horizontal.bmp	oval-vertical.bmp
62.1267230511	1.8983800410999976	shape	0.636744022369	1.0	0.8	n/a	n/a	64.0251030922	64.0292060375	65.0248720646	n/a	oval-horizontal.bmp	oval-horizontal.bmp	circle.bmp
65.1316311359	1.893332004600012	shape	0.803470134735	1.0	0.8	n/a	n/a	67.0249631405	67.0288131237	68.0245261192	n/a	circle.bmp	circle.bmp	oval-vertical.bmp
68.1271519661	1.8976500034000023	shape	0.787661075592	1.0	0.8	n/a	n/a	70.0248019695	70.0285000801	71.0241320133	n/a	oval-horizontal.bmp	circle.bmp	circle.bmp
74.1109211445	1.9132509231000083	face	1.62064385414	1.0	0.8	71.1029319763	74.0237469673	76.0241720676	76.029335022	77.0231981277	n/a	03F_FE_O.jpg	05F_FE_O.jpg	05F_FE_O.jpg
77.1461110115	1.8777589798000065	face	0.786723852158	1.0	0.8	n/a	n/a	79.0238699913	79.0275940895	80.0231921673	n/a	FAZ_32.jpg	FAZ_32.jpg	FAX_45.jpg
80.1447899342	1.878909110999999	face	1.18797302246	1.0	0.8	n/a	n/a	82.0236990452	82.0275609493	83.0227091312	n/a	MAZ_128.jpg	MAZ_101.jpg	MAZ_101.jpg
83.1655220985	1.8675470352999923	face	0.769841194153	1.0	0.8	n/a	n/a	85.0330691338	85.0365231037	86.0225479603	n/a	11F_AN_O.jpg	11F_AN_O.jpg	12F_AN_O.jpg
86.1659879684	1.856088161499997	face	0.793615102768	1.0	0.8	n/a	n/a	88.0220761299	88.0259130001	89.0221719742	n/a	26M_FE_O.jpg	33M_FE_O.jpg	33M_FE_O.jpg
89.1452929974	1.8776569365999904	face	0.90078496933	1.0	0.8	n/a	n/a	91.022949934	91.0263521671	92.0214159489	n/a	MFZ_132.jpg	MFZ_132.jpg	MFZ_120.jpg
95.0696570873	1.9634749890000047	shape	0.768673181534	1.0	0.8	92.0995409489	95.0319180489	97.0331320763	97.0376391411	98.0323021412	n/a	circle.bmp	oval-vertical.bmp	oval-vertical.bmp
98.1369240284	1.895839929600001	shape	0.519956827164	1.0	0.8	n/a	n/a	100.032763958	100.036416054	101.032155991	n/a	oval-horizontal.bmp	oval-horizontal.bmp	circle.bmp
101.134689093	1.8970859049999973	shape	0.635336875916	1.0	0.8	n/a	n/a	103.031774998	103.035443068	104.032227993	n/a	oval-horizontal.bmp	oval-vertical.bmp	oval-vertical.bmp
104.140758038	1.8917679780000043	shape	0.637336969376	1.0	0.8	n/a	n/a	106.032526016	106.036131144	107.03137207	n/a	oval-horizontal.bmp	circle.bmp	circle.bmp
107.136332035	1.8839449880000103	shape	0.624527931213	1.0	0.8	n/a	n/a	109.020277023	109.024157047	110.019623041	n/a	oval-horizontal.bmp	oval-horizontal.bmp	oval-vertical.bmp
110.128102064	1.8917300699999944	shape	0.785854101181	1.0	0.8	n/a	n/a	112.019832134	112.023499966	113.019389153	n/a	circle.bmp	circle.bmp	oval-vertical.bmp
116.070904016	1.947997094000001	face	0.725822925568	1.0	0.8	113.098742008	116.018967152	118.01890111	118.023345947	119.018764019	n/a	FAZ_23.jpg	FAZ_23.jpg	FAX_43.jpg
119.154896021	1.864403009	face	0.723271131516	1.0	0.8	n/a	n/a	121.01929903	121.023097992	122.01799798	n/a	26M_FE_O.jpg	26M_FE_O.jpg	27M_FE_O.BMP
122.139059067	1.8795239919999889	face	0.657066822052	1.0	0.8	n/a	n/a	124.018583059	124.022251129	125.018036127	n/a	MFZ_50.jpg	MFZ_50.jpg	MFX_16.jpg
125.166975975	1.852323055	face	0.906507015228	1.0	0.8	n/a	n/a	127.01929903	127.022912979	128.018352032	n/a	10F_AN_O.jpg	09F_AN_O.jpg	09F_AN_O.jpg
128.150475979	1.8677501680000148	face	0.838958978653	1.0	0.8	n/a	n/a	130.018226147	130.021862984	131.017408133	n/a	38M_AN_O.BMP	39M_AN_O.jpg	39M_AN_O.jpg
131.140751123	1.877732992999995	face	1.26966404915	1.0	0.8	n/a	n/a	133.018484116	133.022195101	134.017701149	n/a	FFZ_102.jpg	FFX_130.jpg	FFX_130.jpg
137.054491043	1.9630959029999813	shape	1.17239999771	1.0	0.8	134.101140976	137.01733613	139.017586946	139.021938086	140.017325163	n/a	oval-horizontal.bmp	oval-horizontal.bmp	oval-vertical.bmp
140.121294975	1.912382125999983	shape	0.638705015182	1.0	0.8	n/a	n/a	142.033677101	142.037280083	143.033026934	n/a	oval-horizontal.bmp	oval-vertical.bmp	oval-vertical.bmp
143.138582945	1.894095182000001	shape	0.638824939728	1.0	0.8	n/a	n/a	145.032678127	145.036236048	146.031891108	n/a	circle.bmp	circle.bmp	oval-vertical.bmp
146.133226156	1.8989617830000045	shape	0.637912988663	1.0	0.8	n/a	n/a	148.032187939	148.035742044	149.031471968	n/a	circle.bmp	oval-vertical.bmp	oval-vertical.bmp
149.135746956	1.8955340380000223	shape	0.720721006393	1.0	0.8	n/a	n/a	151.031280994	151.03481698	152.031438112	n/a	oval-horizontal.bmp	circle.bmp	circle.bmp
152.133232117	1.8980329030000007	shape	0.753685951233	1.0	0.8	n/a	n/a	154.03126502	154.034855127	155.030740023	n/a	oval-horizontal.bmp	oval-horizontal.bmp	circle.bmp
158.104691029	1.9269161219999944	face	1.30416703224	1.0	0.8	155.108818054	158.031116962	160.031607151	160.036049128	161.030122042	n/a	20M_FE_O.jpg	21M_FE_O.jpg	21M_FE_O.jpg
161.181317091	1.850097894999976	face	0.766873121262	1.0	0.8	n/a	n/a	163.031414986	163.034984112	164.029658079	n/a	01F_AN_O.jpg	07F_AN_O.jpg	07F_AN_O.jpg
164.153085947	1.8774080280000192	face	0.852965116501	1.0	0.8	n/a	n/a	166.030493975	166.034127951	167.029998064	n/a	FFX_139.jpg	FFZ_102.jpg	FFZ_102.jpg
167.177421093	1.85300207100002	face	0.669851779938	1.0	0.8	n/a	n/a	169.030423164	169.034073114	170.029592037	n/a	23M_AN_O.jpg	23M_AN_O.jpg	22M_AN_O.jpg
170.157178164	1.8729398250000031	face	0.735672950745	1.0	0.8	n/a	n/a	172.030117989	172.033964157	173.029709101	n/a	MAZ_146.jpg	MAZ_146.jpg	MAX_233.jpg
173.17600894	1.8538842199999976	face	0.953867912292	1.0	0.8	n/a	n/a	175.02989316	175.033576965	176.028795004	n/a	15F_FE_O.jpg	15F_FE_O.jpg	16F_FE_O.jpg
179.066782951	1.962898015999997	shape	0.95300412178	1.0	0.8	176.116207123	179.028861046	181.029680967	181.034417152	182.028236151	n/a	oval-horizontal.bmp	oval-vertical.bmp	oval-vertical.bmp
182.138020992	1.8901000029999864	shape	0.650624036789	1.0	0.8	n/a	n/a	184.028120995	184.032479048	185.027922153	n/a	circle.bmp	oval-vertical.bmp	oval-vertical.bmp
185.13924408	1.889410972000008	shape	0.601841926575	1.0	0.8	n/a	n/a	187.028655052	187.032283068	188.02751112	n/a	oval-horizontal.bmp	oval-horizontal.bmp	oval-vertical.bmp
188.139711142	1.8876318929999911	shape	0.518555164337	1.0	0.8	n/a	n/a	190.027343035	190.030993938	191.027418137	n/a	oval-horizontal.bmp	oval-horizontal.bmp	circle.bmp
191.140954018	1.886745929	shape	0.919725894928	1.0	0.8	n/a	n/a	193.027699947	193.031315088	194.027188063	n/a	circle.bmp	circle.bmp	oval-vertical.bmp
194.137066126	1.890061854999999	shape	0.732059001923	1.0	0.8	n/a	n/a	196.027127981	196.031475067	197.027416945	n/a	oval-horizontal.bmp	circle.bmp	circle.bmp
200.086403131	1.9407079220000008	face	0.832837820053	1.0	0.8	197.116528988	200.026364088	202.027111053	202.031679153	203.026755095	n/a	FFX_54.jpg	FFX_54.jpg	FAX_51.jpg
203.167721987	1.858697176000021	face	0.736498117447	1.0	0.8	n/a	n/a	205.026419163	205.030066967	206.025898933	n/a	40M_FE_O.BMP	41M_FE_O.jpg	41M_FE_O.jpg
206.178820133	1.848022938000014	face	0.736064910889	1.0	0.8	n/a	n/a	208.026843071	208.030953169	209.025501966	n/a	29M_AN_O.jpg	29M_AN_O.jpg	28M_AN_O.jpg
209.155939102	1.8698658940000144	face	0.752929925919	1.0	0.8	n/a	n/a	211.025804996	211.029416084	212.025553942	n/a	FFZ_18.jpg	FFZ_29.jpg	FFZ_29.jpg
212.186264038	1.8392128950000028	face	0.814732789993	1.0	0.8	n/a	n/a	214.025476933	214.029124975	215.02463603	n/a	19F_AN_O.jpg	19F_AN_O.jpg	09F_AN_O.jpg
215.15369916	1.8719849579999843	face	0.697460889816	1.0	0.8	n/a	n/a	217.025684118	217.029334068	218.024716139	n/a	MFZ_132.jpg	MFZ_7.jpg	MFZ_7.jpg
221.060891151	1.9639408590000187	shape	0.754080057144	1.0	0.8	218.11293602	221.024045944	223.02483201	223.029569149	224.022905111	n/a	circle.bmp	oval-vertical.bmp	oval-vertical.bmp
224.135341167	1.8887419710000013	shape	0.514447927475	1.0	0.8	n/a	n/a	226.024083138	226.027647018	227.02327013	n/a	oval-horizontal.bmp	oval-horizontal.bmp	circle.bmp
227.140182018	1.883279084999998	shape	0.769239902496	1.0	0.8	n/a	n/a	229.023461103	229.027311087	230.022875071	n/a	oval-horizontal.bmp	oval-vertical.bmp	oval-vertical.bmp
230.13480401	1.888818025999996	shape	0.629199981689	1.0	0.8	n/a	n/a	232.023622036	232.027464151	233.022859097	n/a	oval-horizontal.bmp	circle.bmp	circle.bmp
233.137661934	1.8856101039999944	shape	0.562550067902	1.0	0.8	n/a	n/a	235.023272038	235.027037144	236.022205114	n/a	oval-horizontal.bmp	oval-horizontal.bmp	oval-vertical.bmp
236.137379169	1.8858489989999896	shape	0.929939985275	1.0	0.8	n/a	n/a	238.023228168	238.026909113	239.021996021	n/a	circle.bmp	circle.bmp	oval-vertical.bmp
242.098247051	1.9234280590000024	face	0.911839008331	1.0	0.8	239.113916159	242.021919012	244.02167511	244.027035952	245.02126503	n/a	20M_FE_O.jpg	21M_FE_O.jpg	21M_FE_O.jpg
245.174087048	1.847419977000016	face	0.685544967651	1.0	0.8	n/a	n/a	247.021507025	247.025175095	248.021126986	n/a	07F_AN_O.jpg	07F_AN_O.jpg	01F_AN_O.jpg
248.151422024	1.8699870110000063	face	0.761297941208	1.0	0.8	n/a	n/a	250.021409035	250.025205135	251.020463943	n/a	FFZ_102.jpg	FFZ_102.jpg	FFX_139.jpg
251.177756071	1.8435978889999944	face	0.802062988281	1.0	0.8	n/a	n/a	253.02135396	253.025073051	254.019183159	n/a	22M_AN_O.jpg	23M_AN_O.jpg	23M_AN_O.jpg
254.154534101	1.865545034999997	face	1.07788991928	1.0	0.8	n/a	n/a	256.020079136	256.024132967	257.020322084	n/a	MAX_233.jpg	MAZ_146.jpg	MAZ_146.jpg
257.176020145	1.8445668219999904	face	0.936970949173	1.0	0.8	n/a	n/a	259.020586967	259.024201155	260.019287109	n/a	15F_FE_O.jpg	15F_FE_O.jpg	16F_FE_O.jpg
263.067492008	1.9628369810000093	shape	0.834381818771	1.0	0.8	260.114066124	263.030066967	265.030328989	265.034847975	266.029840946	n/a	oval-horizontal.bmp	oval-horizontal.bmp	oval-vertical.bmp
266.145025969	1.8853120800000056	shape	0.836412906647	1.0	0.8	n/a	n/a	268.030338049	268.034059048	269.029757023	n/a	oval-horizontal.bmp	oval-vertical.bmp	oval-vertical.bmp
269.144511938	1.8858602050000288	shape	0.702779054642	1.0	0.8	n/a	n/a	271.030372143	271.034032106	272.029953003	n/a	circle.bmp	circle.bmp	oval-vertical.bmp
272.145234108	1.884940862999997	shape	0.536426067352	1.0	0.8	n/a	n/a	274.030174971	274.033708096	275.029924154	n/a	circle.bmp	oval-vertical.bmp	oval-vertical.bmp
275.148728132	1.8692789080000125	shape	0.717944145203	1.0	0.8	n/a	n/a	277.01800704	277.02164197	278.017678976	n/a	oval-horizontal.bmp	circle.bmp	circle.bmp
278.135159016	1.8827681540000183	shape	0.637201070786	1.0	0.8	n/a	n/a	280.01792717	280.022089005	281.017805099	n/a	oval-horizontal.bmp	oval-horizontal.bmp	circle.bmp
284.096037149	1.9221129420000125	face	0.692722082138	1.0	0.8	281.111089945	284.033717155	286.018150091	286.02265811	287.017524958	n/a	FFZ_18.jpg	FAZ_129.jpg	FAZ_129.jpg
287.17920208	1.8544938560000328	face	1.52208304405	1.0	0.8	n/a	n/a	289.033695936	289.037331104	290.032926083	n/a	20M_FE_O.jpg	24M_FE_O.jpg	24M_FE_O.jpg
290.167508125	1.8659839630000192	face	0.722285985947	1.0	0.8	n/a	n/a	292.033492088	292.037126064	293.033113956	n/a	FAZ_23.jpg	FAX_25.jpg	FAX_25.jpg
293.189337969	1.8440070149999883	face	0.75244808197	1.0	0.8	n/a	n/a	295.033344984	295.037049055	296.032289982	n/a	33M_FE_O.jpg	33M_FE_O.jpg	35M_FE_O.jpg
296.194787025	1.838433981000037	face	0.871992826462	1.0	0.8	n/a	n/a	298.033221006	298.037153006	299.031362057	n/a	01F_AN_O.jpg	01F_AN_O.jpg	02F_AN_O.jpg
299.164380074	1.8685839169999667	face	0.622708082199	1.0	0.8	n/a	n/a	301.032963991	301.036581993	302.031507969	n/a	MFZ_132.jpg	MFZ_132.jpg	MFZ_120.jpg
305.069005013	1.962821960000042	shape	0.806102991104	1.0	0.8	302.130809069	305.031279087	307.031826973	307.036327124	308.030881166	n/a	oval-horizontal.bmp	oval-vertical.bmp	oval-vertical.bmp
308.149911165	1.881204844000024	shape	0.522267103195	1.0	0.8	n/a	n/a	310.031116009	310.034697056	311.03056097	n/a	circle.bmp	oval-vertical.bmp	oval-vertical.bmp
311.148947001	1.8820371620000167	shape	0.604851007462	1.0	0.8	n/a	n/a	313.030984163	313.034830093	314.030221939	n/a	oval-horizontal.bmp	oval-horizontal.bmp	oval-vertical.bmp
314.147276163	1.8831748959999568	shape	0.617813110352	1.0	0.8	n/a	n/a	316.030451059	316.03403616	317.029855013	n/a	oval-horizontal.bmp	oval-horizontal.bmp	circle.bmp
317.147917986	1.882392168000024	shape	0.804141998291	1.0	0.8	n/a	n/a	319.030310154	319.033952951	320.029958963	n/a	circle.bmp	circle.bmp	oval-vertical.bmp
320.15190196	1.8775880340000413	shape	0.787348985672	1.0	0.8	n/a	n/a	322.029489994	322.033113003	323.02999711	n/a	oval-horizontal.bmp	circle.bmp	circle.bmp
326.114583015	1.9155690669999783	face	0.883682012558	1.0	0.8	323.128131151	326.028715134	328.030152082	328.03468895	329.028973103	n/a	17F_FE_O.jpg	18F_FE_O.jpg	18F_FE_O.jpg
329.19385004	1.8358430870000009	face	0.652903795242	1.0	0.8	n/a	n/a	331.029693127	331.033307076	332.028676987	n/a	42M_AN_O.jpg	43M_AN_O.jpg	43M_AN_O.jpg
332.191277981	1.837090015000001	face	0.953343153	1.0	0.8	n/a	n/a	334.028367996	334.031809092	335.027534962	n/a	31M_FE_O.jpg	31M_FE_O.jpg	32M_FE_O.jpg
335.167696953	1.8604509829999645	face	0.752743005753	1.0	0.8	n/a	n/a	337.028147936	337.031779051	338.027626038	n/a	FAZ_212.jpg	FFZ_236.jpg	FFZ_236.jpg
338.192948103	1.8350069520000147	face	1.26859998703	1.0	0.8	n/a	n/a	340.027955055	340.03176713	341.027253151	n/a	06F_FE_O.jpg	06F_FE_O.jpg	08F_FE_O.jpg
341.165719986	1.862378120000017	face	0.686013221741	1.0	0.8	n/a	n/a	343.028098106	343.031726122	344.027086973	n/a	MAZ_128.jpg	MAZ_128.jpg	MAX_39.jpg
347.064348936	1.962405205000039	shape	0.719997882843	1.0	0.8	344.128204107	347.026972055	349.026754141	349.03126812	350.026276112	n/a	circle.bmp	oval-vertical.bmp	oval-vertical.bmp
350.147844076	1.87846994399996	shape	0.58452796936	1.0	0.8	n/a	n/a	352.02631402	352.030328035	353.026077986	n/a	oval-horizontal.bmp	oval-horizontal.bmp	circle.bmp
353.145372152	1.8812088970000216	shape	0.936263084412	1.0	0.8	n/a	n/a	355.026581049	355.030354977	356.025767088	n/a	oval-horizontal.bmp	oval-vertical.bmp	oval-vertical.bmp
356.149343014	1.8765470980000032	shape	0.770483970642	1.0	0.8	n/a	n/a	358.025890112	358.029592991	359.025084019	n/a	oval-horizontal.bmp	circle.bmp	circle.bmp
359.149290085	1.876576899999975	shape	0.688029050827	1.0	0.8	n/a	n/a	361.025866985	361.029565096	362.02521801	n/a	oval-horizontal.bmp	oval-horizontal.bmp	oval-vertical.bmp
362.150206089	1.874911069999996	shape	0.854366064072	1.0	0.8	n/a	n/a	364.025117159	364.029229164	365.024573088	n/a	circle.bmp	circle.bmp	oval-vertical.bmp
368.08020401	1.9446699620000345	face	0.869292020798	1.0	0.8	365.124956131	368.024853945	370.024873972	370.02937007	371.023842096	n/a	FFZ_18.jpg	FAZ_129.jpg	FAZ_129.jpg
371.187134981	1.837893962999999	face	0.970335006714	1.0	0.8	n/a	n/a	373.025028944	373.028655052	374.023599148	n/a	20M_FE_O.jpg	24M_FE_O.jpg	24M_FE_O.jpg
374.162507057	1.861283063999963	face	0.770617961884	1.0	0.8	n/a	n/a	376.023790121	376.027544022	377.022927999	n/a	FAZ_23.jpg	FAX_25.jpg	FAX_25.jpg
377.190372944	1.833265066000024	face	1.0865650177	1.0	0.8	n/a	n/a	379.02363801	379.027276993	380.022480011	n/a	33M_FE_O.jpg	33M_FE_O.jpg	35M_FE_O.jpg
380.190750122	1.833178042999976	face	0.653896093369	1.0	0.8	n/a	n/a	382.023928165	382.027539968	383.022485971	n/a	01F_AN_O.jpg	01F_AN_O.jpg	02F_AN_O.jpg
383.163974047	1.8591670989999896	face	0.669250011444	1.0	0.8	n/a	n/a	385.023141146	385.026795149	386.022170067	394.421328068	MFZ_132.jpg	MFZ_132.jpg	MFZ_120.jpg
