onset	duration	trial_type	response_time	accuracy_binarized	tr_seconds	cueStartTime	cueEndTime	trialEndTime	fixStartTime	fixEndTime	runEndTime	stimLeft	stimTop	stimRight
11.0511679649	1.9684269429000008	shape	0.985476016998	1.0	0.8	8.01471090317	11.0024809837	13.0195949078	13.024091959	14.0184440613	n/a	oval-horizontal.bmp	oval-horizontal.bmp	oval-vertical.bmp
14.130325079	1.8876399993999995	shape	0.897706985474	0.0	0.8	n/a	n/a	16.0179650784	16.0218389034	17.0181360245	n/a	oval-horizontal.bmp	oval-vertical.bmp	oval-vertical.bmp
17.1190779209	1.8994550705	shape	0.936614990234	1.0	0.8	n/a	n/a	19.0185329914	19.0222220421	20.0178849697	n/a	circle.bmp	circle.bmp	oval-vertical.bmp
20.1211891174	1.8964929581000007	shape	0.770099878311	1.0	0.8	n/a	n/a	22.0176820755	22.0216588974	23.0176680088	n/a	circle.bmp	oval-vertical.bmp	oval-vertical.bmp
23.116861105	1.9005877970999985	shape	0.902714014053	1.0	0.8	n/a	n/a	25.0174489021	25.0211129189	26.0168819427	n/a	oval-horizontal.bmp	circle.bmp	circle.bmp
26.116163969	1.9009139538	shape	0.713894128799	1.0	0.8	n/a	n/a	28.0170779228	28.0214369297	29.017072916	n/a	oval-horizontal.bmp	oval-horizontal.bmp	circle.bmp
32.0767889023	1.9398992060999944	face	0.79456782341	1.0	0.8	29.095074892	32.0163559914	34.0166881084	34.0218830109	35.0155479908	n/a	FAZ_23.jpg	FAZ_23.jpg	FAX_43.jpg
35.1604149342	1.8557801246000023	face	0.895249843597	1.0	0.8	n/a	n/a	37.0161950588	37.0200181007	38.0153279305	n/a	26M_FE_O.jpg	26M_FE_O.jpg	27M_FE_O.BMP
38.1391339302	1.8767399787999963	face	0.787086963654	1.0	0.8	n/a	n/a	40.015873909	40.0202069283	41.0149669647	n/a	MFX_16.jpg	MFZ_50.jpg	MFZ_50.jpg
41.1631851196	1.8525807858000007	face	1.02971100807	1.0	0.8	n/a	n/a	43.0157659054	43.0194919109	44.0151228905	n/a	09F_AN_O.jpg	09F_AN_O.jpg	10F_AN_O.jpg
44.1498060226	1.8656249046999989	face	0.985929965973	1.0	0.8	n/a	n/a	46.0154309273	46.0190711021	47.0145900249	n/a	38M_AN_O.BMP	39M_AN_O.jpg	39M_AN_O.jpg
47.135215044	1.8802070618	face	0.986908912659	1.0	0.8	n/a	n/a	49.0154221058	49.0195810795	50.0142469406	n/a	FFZ_102.jpg	FFX_130.jpg	FFX_130.jpg
53.0598700047	1.964929103799996	shape	0.753684997559	1.0	0.8	50.0897960663	53.0237970352	55.0247991085	55.0293879509	56.0236968994	n/a	oval-horizontal.bmp	oval-vertical.bmp	oval-vertical.bmp
56.1230590343	1.9008479119000008	shape	0.620056867599	1.0	0.8	n/a	n/a	58.0239069462	58.0275349617	59.0130360126	n/a	circle.bmp	oval-vertical.bmp	oval-vertical.bmp
59.1153199673	1.9089360236999933	shape	0.71729683876	1.0	0.8	n/a	n/a	61.024255991	61.0279591084	62.0235691071	n/a	oval-horizontal.bmp	oval-horizontal.bmp	oval-vertical.bmp
62.1259961128	1.897519826900001	shape	0.903357982635	1.0	0.8	n/a	n/a	64.0235159397	64.0273499489	65.0237951279	n/a	oval-horizontal.bmp	oval-horizontal.bmp	circle.bmp
65.1262540817	1.8981249332999963	shape	0.853751897812	1.0	0.8	n/a	n/a	67.024379015	67.0279750824	68.0231730938	n/a	circle.bmp	circle.bmp	oval-vertical.bmp
68.1239480972	1.8884279728000024	shape	0.819423913956	1.0	0.8	n/a	n/a	70.01237607	70.0160269737	71.0120899677	n/a	oval-horizontal.bmp	circle.bmp	circle.bmp
74.1013929844	1.910881042500009	face	0.887166976929	1.0	0.8	71.0877239704	74.0117239952	76.0122740269	76.0167739391	77.0114839077	n/a	03F_FE_O.jpg	05F_FE_O.jpg	05F_FE_O.jpg
77.137321949	1.874736070600008	face	0.857123851776	1.0	0.8	n/a	n/a	79.0120580196	79.0156390667	80.0105979443	n/a	FAZ_32.jpg	FAZ_32.jpg	FAX_45.jpg
80.1372311115	1.8741669654999955	face	0.907534837723	1.0	0.8	n/a	n/a	82.011398077	82.0149450302	83.0104129314	n/a	MAZ_128.jpg	MAZ_101.jpg	MAZ_101.jpg
83.1505410671	1.8602638245000087	face	0.770766019821	1.0	0.8	n/a	n/a	85.0108048916	85.0143659115	86.0106329918	n/a	11F_AN_O.jpg	11F_AN_O.jpg	12F_AN_O.jpg
86.1523649693	1.8586330413000096	face	0.735932826996	1.0	0.8	n/a	n/a	88.0109980106	88.0169920921	89.0106940269	n/a	26M_FE_O.jpg	33M_FE_O.jpg	33M_FE_O.jpg
89.1385629177	1.8882651329000024	face	0.840021848679	1.0	0.8	n/a	n/a	91.0268280506	91.0304479599	92.0255880356	n/a	MFZ_132.jpg	MFZ_132.jpg	MFZ_120.jpg
95.0645489693	1.9615170955	shape	0.755786180496	1.0	0.8	92.1042230129	95.0254819393	97.0260660648	97.0309410095	98.0255770683	n/a	circle.bmp	oval-vertical.bmp	oval-vertical.bmp
98.1300721169	1.8945128921000105	shape	0.67165017128	1.0	0.8	n/a	n/a	100.024585009	100.028250933	101.024992943	n/a	oval-horizontal.bmp	oval-horizontal.bmp	circle.bmp
101.127629995	1.897763013999992	shape	0.572613954544	1.0	0.8	n/a	n/a	103.025393009	103.029043913	104.024184942	n/a	oval-horizontal.bmp	oval-vertical.bmp	oval-vertical.bmp
104.128437042	1.896688937999997	shape	0.805453062057	1.0	0.8	n/a	n/a	106.02512598	106.028589964	107.024501085	n/a	oval-horizontal.bmp	circle.bmp	circle.bmp
107.128578901	1.8965160850000016	shape	0.905012130737	1.0	0.8	n/a	n/a	109.025094986	109.029109955	110.024910927	n/a	oval-horizontal.bmp	oval-horizontal.bmp	oval-vertical.bmp
110.128322124	1.8953309060000123	shape	0.601510047913	1.0	0.8	n/a	n/a	112.02365303	112.027426004	113.023947001	n/a	circle.bmp	circle.bmp	oval-vertical.bmp
116.078716993	1.9457459449999988	face	0.68714594841	1.0	0.8	113.104063988	116.023241997	118.024462938	118.029014111	119.023394108	n/a	FAZ_23.jpg	FAZ_23.jpg	FAX_43.jpg
119.158147097	1.8654069899999968	face	0.72109413147	1.0	0.8	n/a	n/a	121.023554087	121.027168989	122.022891045	n/a	26M_FE_O.jpg	26M_FE_O.jpg	27M_FE_O.BMP
122.143000126	1.880188941999989	face	0.720618963242	1.0	0.8	n/a	n/a	124.023189068	124.027532101	125.022830963	n/a	MFZ_50.jpg	MFZ_50.jpg	MFX_16.jpg
125.172524929	1.8504121299999952	face	0.885587215424	1.0	0.8	n/a	n/a	127.022937059	127.026545048	128.02237606	n/a	10F_AN_O.jpg	09F_AN_O.jpg	09F_AN_O.jpg
128.153837919	1.868589162999996	face	0.586313962936	1.0	0.8	n/a	n/a	130.022427082	130.026060104	131.021476984	n/a	38M_AN_O.BMP	39M_AN_O.jpg	39M_AN_O.jpg
131.145009995	1.87716507899998	face	0.7025411129	1.0	0.8	n/a	n/a	133.022175074	133.025814056	134.021918058	n/a	FFZ_102.jpg	FFX_130.jpg	FFX_130.jpg
137.058157921	1.963469027999992	shape	1.08565402031	1.0	0.8	134.103830099	137.021044016	139.021626949	139.026072979	140.02038312	n/a	oval-horizontal.bmp	oval-horizontal.bmp	oval-vertical.bmp
140.12588501	1.8949949740000136	shape	0.587327957153	1.0	0.8	n/a	n/a	142.020879984	142.024491072	143.021021128	n/a	oval-horizontal.bmp	oval-vertical.bmp	oval-vertical.bmp
143.126971006	1.8944261080000049	shape	0.504085063934	1.0	0.8	n/a	n/a	145.021397114	145.025015116	146.019968033	n/a	circle.bmp	circle.bmp	oval-vertical.bmp
146.129000902	1.891350031000001	shape	0.554344892502	1.0	0.8	n/a	n/a	148.020350933	148.024331093	149.01978898	n/a	circle.bmp	oval-vertical.bmp	oval-vertical.bmp
149.128708124	1.8912169930000005	shape	0.686496973038	1.0	0.8	n/a	n/a	151.019925117	151.023845911	152.019736052	n/a	oval-horizontal.bmp	circle.bmp	circle.bmp
152.128566027	1.891143083000003	shape	0.786575078964	1.0	0.8	n/a	n/a	154.01970911	154.023283958	155.019226074	n/a	oval-horizontal.bmp	oval-horizontal.bmp	circle.bmp
158.099637032	1.920631885000006	face	1.10245704651	1.0	0.8	155.105528116	158.019401073	160.020268917	160.025358915	161.018558025	n/a	20M_FE_O.jpg	21M_FE_O.jpg	21M_FE_O.jpg
161.169626951	1.849033117999994	face	0.669417142868	1.0	0.8	n/a	n/a	163.018660069	163.022335052	164.018924952	n/a	01F_AN_O.jpg	07F_AN_O.jpg	07F_AN_O.jpg
164.143785	1.874725103000003	face	0.666481018066	1.0	0.8	n/a	n/a	166.018510103	166.022110939	167.017790079	n/a	FFX_139.jpg	FFZ_102.jpg	FFZ_102.jpg
167.162990093	1.855101824000002	face	0.932214021683	1.0	0.8	n/a	n/a	169.018091917	169.021740913	170.018177032	n/a	23M_AN_O.jpg	23M_AN_O.jpg	22M_AN_O.jpg
170.144303083	1.8732278349999945	face	0.764651060104	1.0	0.8	n/a	n/a	172.017530918	172.021315098	173.017000914	n/a	MAZ_146.jpg	MAZ_146.jpg	MAX_233.jpg
173.165956974	1.8520081039999925	face	1.77106690407	1.0	0.8	n/a	n/a	175.017965078	175.02163291	176.01691103	n/a	15F_FE_O.jpg	15F_FE_O.jpg	16F_FE_O.jpg
179.05343008	1.9633278850000124	shape	0.834930181503	1.0	0.8	176.10668993	179.016788006	181.016757965	181.021311998	182.016070127	n/a	oval-horizontal.bmp	oval-vertical.bmp	oval-vertical.bmp
182.128660917	1.8876671790000048	shape	0.630112171173	1.0	0.8	n/a	n/a	184.016328096	184.020375013	185.015748024	n/a	circle.bmp	oval-vertical.bmp	oval-vertical.bmp
185.124816895	1.891104220999977	shape	0.98708486557	1.0	0.8	n/a	n/a	187.015921116	187.019571066	188.01602602	n/a	oval-horizontal.bmp	oval-horizontal.bmp	oval-vertical.bmp
188.128731966	1.8872179990000009	shape	0.631227970123	1.0	0.8	n/a	n/a	190.015949965	190.019583941	191.015126944	n/a	oval-horizontal.bmp	oval-horizontal.bmp	circle.bmp
191.128390074	1.8869209289999844	shape	0.646524906158	1.0	0.8	n/a	n/a	193.015311003	193.019258976	194.015212059	n/a	circle.bmp	circle.bmp	oval-vertical.bmp
194.132070065	1.8827989100000195	shape	0.770037889481	1.0	0.8	n/a	n/a	196.014868975	196.018934965	197.014315128	n/a	oval-horizontal.bmp	circle.bmp	circle.bmp
200.071768045	1.9429399969999963	face	0.719117879868	1.0	0.8	197.101895094	200.013957977	202.014708042	202.019366026	203.013786077	n/a	FFX_54.jpg	FFX_54.jpg	FAX_51.jpg
203.155160904	1.8593230249999808	face	0.611257791519	1.0	0.8	n/a	n/a	205.014483929	205.018501043	206.012823105	n/a	40M_FE_O.BMP	41M_FE_O.jpg	41M_FE_O.jpg
206.16226697	1.85161709800002	face	0.578536987305	1.0	0.8	n/a	n/a	208.013884068	208.018198013	209.013307095	n/a	29M_AN_O.jpg	29M_AN_O.jpg	28M_AN_O.jpg
209.141422033	1.872015953000016	face	0.745023012161	1.0	0.8	n/a	n/a	211.013437986	211.017139912	212.012677908	n/a	FFZ_18.jpg	FFZ_29.jpg	FFZ_29.jpg
212.165431976	1.8479650019999951	face	0.819886922836	1.0	0.8	n/a	n/a	214.013396978	214.016657114	215.012555122	n/a	19F_AN_O.jpg	19F_AN_O.jpg	09F_AN_O.jpg
215.141076088	1.8717129229999896	face	0.578617095947	1.0	0.8	n/a	n/a	217.012789011	217.016509056	218.011974096	n/a	MFZ_132.jpg	MFZ_7.jpg	MFZ_7.jpg
221.048474073	1.9636418820000188	shape	0.770443916321	1.0	0.8	218.101011038	221.011439085	223.012115955	223.0166049	224.011420012	n/a	circle.bmp	oval-vertical.bmp	oval-vertical.bmp
224.124200106	1.887442827000001	shape	0.610831022263	1.0	0.8	n/a	n/a	226.011642933	226.015392065	227.011044979	n/a	oval-horizontal.bmp	oval-horizontal.bmp	circle.bmp
227.122208118	1.8897409440000104	shape	0.525965213776	1.0	0.8	n/a	n/a	229.011949062	229.015574932	230.010951996	n/a	oval-horizontal.bmp	oval-vertical.bmp	oval-vertical.bmp
230.125591993	1.901952982000012	shape	0.742202997208	1.0	0.8	n/a	n/a	232.027544975	232.031641006	233.027013063	n/a	oval-horizontal.bmp	circle.bmp	circle.bmp
233.139714956	1.871216059000005	shape	0.992923021317	1.0	0.8	n/a	n/a	235.010931015	235.01453495	236.010684967	n/a	oval-horizontal.bmp	oval-horizontal.bmp	oval-vertical.bmp
236.128098965	1.8988060949999976	shape	0.641767024994	1.0	0.8	n/a	n/a	238.02690506	238.030595064	239.026179075	n/a	circle.bmp	circle.bmp	oval-vertical.bmp
242.106329918	1.9202170369999865	face	1.05870890617	1.0	0.8	239.118613958	242.026425123	244.026546955	244.03144002	245.026464939	n/a	20M_FE_O.jpg	21M_FE_O.jpg	21M_FE_O.jpg
245.179920912	1.8461720939999964	face	0.786120891571	1.0	0.8	n/a	n/a	247.026093006	247.029644966	248.025202036	n/a	07F_AN_O.jpg	07F_AN_O.jpg	01F_AN_O.jpg
248.154776096	1.871105909999983	face	0.823169946671	1.0	0.8	n/a	n/a	250.025882006	250.029477119	251.025300026	n/a	FFZ_102.jpg	FFZ_102.jpg	FFX_139.jpg
251.182425022	1.8430578710000127	face	1.00344419479	1.0	0.8	n/a	n/a	253.025482893	253.029386044	254.024665117	n/a	22M_AN_O.jpg	23M_AN_O.jpg	23M_AN_O.jpg
254.157129049	1.868264914000008	face	0.623334169388	1.0	0.8	n/a	n/a	256.025393963	256.029375076	257.024220943	n/a	MAX_233.jpg	MAZ_146.jpg	MAZ_146.jpg
257.177212	1.847775936000005	face	1.22590613365	1.0	0.8	n/a	n/a	259.024987936	259.028620005	260.02480793	n/a	15F_FE_O.jpg	15F_FE_O.jpg	16F_FE_O.jpg
263.061636925	1.9631919859999696	shape	1.00675606728	1.0	0.8	260.117670059	263.023684978	265.024828911	265.030060053	266.023569107	n/a	oval-horizontal.bmp	oval-horizontal.bmp	oval-vertical.bmp
266.13707304	1.887106894999988	shape	0.838201999664	1.0	0.8	n/a	n/a	268.024179935	268.028357029	269.023211002	n/a	oval-horizontal.bmp	oval-vertical.bmp	oval-vertical.bmp
269.138333082	1.8849859240000344	shape	0.988838195801	1.0	0.8	n/a	n/a	271.023319006	271.026917934	272.022635937	n/a	circle.bmp	circle.bmp	oval-vertical.bmp
272.138039112	1.885421990999987	shape	0.6881980896	1.0	0.8	n/a	n/a	274.023461103	274.027117014	275.022749901	n/a	circle.bmp	oval-vertical.bmp	oval-vertical.bmp
275.137902975	1.8850550650000173	shape	0.686956882477	1.0	0.8	n/a	n/a	277.02295804	277.026572943	278.021812916	n/a	oval-horizontal.bmp	circle.bmp	circle.bmp
278.138875961	1.8838911060000207	shape	0.987431049347	1.0	0.8	n/a	n/a	280.022767067	280.026937962	281.020833969	n/a	oval-horizontal.bmp	oval-horizontal.bmp	circle.bmp
284.081244946	1.940505026999972	face	0.671421051025	1.0	0.8	281.116755009	284.021171093	286.021749973	286.026247025	287.020797968	n/a	FFZ_18.jpg	FAZ_129.jpg	FAZ_129.jpg
287.179286003	1.8421220779999885	face	0.852722167969	1.0	0.8	n/a	n/a	289.021408081	289.025121927	290.020944118	n/a	20M_FE_O.jpg	24M_FE_O.jpg	24M_FE_O.jpg
290.156827927	1.86365413599998	face	0.885926961899	1.0	0.8	n/a	n/a	292.020482063	292.024204016	293.020688057	n/a	FAZ_23.jpg	FAX_25.jpg	FAX_25.jpg
293.178939104	1.842513800000006	face	0.853245973587	1.0	0.8	n/a	n/a	295.021452904	295.025226116	296.019382954	n/a	33M_FE_O.jpg	33M_FE_O.jpg	35M_FE_O.jpg
296.184493065	1.836106061999999	face	0.953675031662	1.0	0.8	n/a	n/a	298.020599127	298.024245024	299.019181967	n/a	01F_AN_O.jpg	01F_AN_O.jpg	02F_AN_O.jpg
299.152653933	1.8672261229999665	face	0.8701171875	1.0	0.8	n/a	n/a	301.019880056	301.023472071	302.01925993	n/a	MFZ_132.jpg	MFZ_132.jpg	MFZ_120.jpg
305.056674004	1.9628250590000107	shape	0.919475078583	1.0	0.8	302.115864992	305.019324064	307.019499063	307.024060965	308.017889977	n/a	oval-horizontal.bmp	oval-vertical.bmp	oval-vertical.bmp
308.136594057	1.882941960999972	shape	0.733495950699	1.0	0.8	n/a	n/a	310.019536018	310.023188114	311.018541098	n/a	circle.bmp	oval-vertical.bmp	oval-vertical.bmp
311.136351109	1.8822908400000529	shape	0.937385797501	1.0	0.8	n/a	n/a	313.018641949	313.022330046	314.018070936	n/a	oval-horizontal.bmp	oval-horizontal.bmp	oval-vertical.bmp
314.136308908	1.881690026000001	shape	0.886534929276	1.0	0.8	n/a	n/a	316.017998934	316.022030115	317.017551899	n/a	oval-horizontal.bmp	oval-horizontal.bmp	circle.bmp
317.134789944	1.8830161090000388	shape	0.987329006195	1.0	0.8	n/a	n/a	319.017806053	319.021434069	320.017658949	n/a	circle.bmp	circle.bmp	oval-vertical.bmp
320.138086081	1.879868030000012	shape	0.770060062408	1.0	0.8	n/a	n/a	322.017954111	322.02156496	323.01701498	n/a	oval-horizontal.bmp	circle.bmp	circle.bmp
326.099034071	1.9182689190000133	face	1.53741908073	1.0	0.8	323.114191055	326.016603947	328.01730299	328.022202969	329.016204119	n/a	17F_FE_O.jpg	18F_FE_O.jpg	18F_FE_O.jpg
329.177246094	1.8393228049999948	face	0.816102981567	1.0	0.8	n/a	n/a	331.016568899	331.020190001	332.016155005	n/a	42M_AN_O.jpg	43M_AN_O.jpg	43M_AN_O.jpg
332.174103022	1.842525959	face	0.886518001556	1.0	0.8	n/a	n/a	334.016628981	334.020450115	335.015484095	n/a	31M_FE_O.jpg	31M_FE_O.jpg	32M_FE_O.jpg
335.152648926	1.86346697800002	face	0.935822963715	1.0	0.8	n/a	n/a	337.016115904	337.019732952	338.015249014	n/a	FAZ_212.jpg	FFZ_236.jpg	FFZ_236.jpg
338.182504892	1.8339231020000284	face	0.936435222626	1.0	0.8	n/a	n/a	340.016427994	340.020503044	341.014919996	n/a	06F_FE_O.jpg	06F_FE_O.jpg	08F_FE_O.jpg
341.150743008	1.8650929919999728	face	0.816534042358	1.0	0.8	n/a	n/a	343.015836	343.019460917	344.014389038	n/a	MAZ_128.jpg	MAZ_128.jpg	MAX_39.jpg
347.051817894	1.9628531930000008	shape	0.670428991318	1.0	0.8	344.114767075	347.014818907	349.014671087	349.01938796	350.013952971	n/a	circle.bmp	oval-vertical.bmp	oval-vertical.bmp
350.136298895	1.8778150080000275	shape	0.717308044434	1.0	0.8	n/a	n/a	352.014113903	352.017889023	353.013679028	n/a	oval-horizontal.bmp	oval-horizontal.bmp	circle.bmp
353.135792017	1.878446101999998	shape	0.71951007843	1.0	0.8	n/a	n/a	355.014238119	355.01792407	356.013292074	n/a	oval-horizontal.bmp	oval-vertical.bmp	oval-vertical.bmp
356.134826899	1.878559112000005	shape	0.819859027863	1.0	0.8	n/a	n/a	358.013386011	358.017004013	359.012979031	n/a	oval-horizontal.bmp	circle.bmp	circle.bmp
359.137676954	1.875376939999967	shape	1.11951398849	1.0	0.8	n/a	n/a	361.013053894	361.01678896	362.01279211	n/a	oval-horizontal.bmp	oval-horizontal.bmp	oval-vertical.bmp
362.136620045	1.8759698860000071	shape	0.951642036438	1.0	0.8	n/a	n/a	364.012589931	364.016571999	365.012559891	n/a	circle.bmp	circle.bmp	oval-vertical.bmp
368.067419052	1.9459369180000288	face	0.803858995438	1.0	0.8	365.112592936	368.011909008	370.01335597	370.017930984	371.011703968	n/a	FFZ_18.jpg	FAZ_129.jpg	FAZ_129.jpg
371.179753065	1.8323619369999733	face	1.30340909958	1.0	0.8	n/a	n/a	373.012115002	373.015856981	374.011240005	n/a	20M_FE_O.jpg	24M_FE_O.jpg	24M_FE_O.jpg
374.152610064	1.859129905000032	face	0.952560186386	1.0	0.8	n/a	n/a	376.011739969	376.015892029	377.010765076	n/a	FAZ_23.jpg	FAX_25.jpg	FAX_25.jpg
377.168862104	1.8428978919999963	face	0.619604110718	1.0	0.8	n/a	n/a	379.011759996	379.015484095	380.010565996	n/a	33M_FE_O.jpg	33M_FE_O.jpg	35M_FE_O.jpg
380.181158066	1.8303530209999508	face	0.719879865646	1.0	0.8	n/a	n/a	382.011511087	382.015206099	383.01079011	n/a	01F_AN_O.jpg	01F_AN_O.jpg	02F_AN_O.jpg
383.1505301	1.860284804999992	face	0.787732124329	1.0	0.8	n/a	n/a	385.010814905	385.014658928	386.010370016	394.425616026	MFZ_132.jpg	MFZ_132.jpg	MFZ_120.jpg
