onset	duration	trial_type	response_time	accuracy_binarized	tr_seconds	cueStartTime	cueEndTime	trialEndTime	fixStartTime	fixEndTime	runEndTime	stimLeft	stimTop	stimRight
11.0809850693	1.9585490226	shape	0.928506851196	0.0	0.8	8.03313589096	11.0239748955	13.0395340919	13.0563650131	14.0390300751	n/a	oval-horizontal.bmp	oval-horizontal.bmp	oval-vertical.bmp
14.1656889915	1.8731899262	shape	0.777179002762	1.0	0.8	n/a	n/a	16.0388789177	16.0549800396	17.0381429195	n/a	oval-horizontal.bmp	oval-vertical.bmp	oval-vertical.bmp
17.1510629654	1.8825569153000004	shape	0.657649993896	1.0	0.8	n/a	n/a	19.0336198807	19.0509710312	20.0345959663	n/a	circle.bmp	circle.bmp	oval-vertical.bmp
20.1517119408	1.8859200477000009	shape	0.653805971146	1.0	0.8	n/a	n/a	22.0376319885	22.054459095	23.0365710258	n/a	circle.bmp	oval-vertical.bmp	oval-vertical.bmp
23.1537818909	1.8822340964999995	shape	0.753186941147	1.0	0.8	n/a	n/a	25.0360159874	25.0523359776	26.0352830887	n/a	oval-horizontal.bmp	circle.bmp	circle.bmp
26.153744936	1.8816430569	shape	0.884876966476	1.0	0.8	n/a	n/a	28.0353879929	28.0511128902	29.0340390205	n/a	oval-horizontal.bmp	oval-horizontal.bmp	circle.bmp
32.1009340286	1.931885957699997	face	0.84320807457	1.0	0.8	29.1114990711	32.0333609581	34.0328199863	34.049861908	35.0328478813	n/a	FAZ_23.jpg	FAZ_23.jpg	FAX_43.jpg
35.1832859516	1.8485360146000005	face	0.743942975998	1.0	0.8	n/a	n/a	37.0318219662	37.0482230186	38.0319550037	n/a	26M_FE_O.jpg	26M_FE_O.jpg	27M_FE_O.BMP
38.1657700539	1.865916967400004	face	0.690891027451	1.0	0.8	n/a	n/a	40.0316870213	40.0476279259	41.027987957	n/a	MFX_16.jpg	MFZ_50.jpg	MFZ_50.jpg
41.1959409714	1.8349320888000025	face	0.77191901207	1.0	0.8	n/a	n/a	43.0308730602	43.0475819111	44.0299310684	n/a	09F_AN_O.jpg	09F_AN_O.jpg	10F_AN_O.jpg
44.1805310249	1.8494429588999992	face	0.703330993652	1.0	0.8	n/a	n/a	46.0299739838	46.045664072	47.0292758942	n/a	38M_AN_O.BMP	39M_AN_O.jpg	39M_AN_O.jpg
47.1629149914	1.865401029600001	face	0.85094499588	1.0	0.8	n/a	n/a	49.028316021	49.0455050468	50.02820611	n/a	FFZ_102.jpg	FFX_130.jpg	FFX_130.jpg
53.0783760548	1.9481158255999984	shape	0.675149917603	1.0	0.8	50.1055870056	53.0271220207	55.0264918804	55.0433590412	56.0260500908	n/a	oval-horizontal.bmp	oval-vertical.bmp	oval-vertical.bmp
56.1367170811	1.889062881400001	shape	0.642584085464	1.0	0.8	n/a	n/a	58.0257799625	58.0426740646	59.0253610611	n/a	circle.bmp	oval-vertical.bmp	oval-vertical.bmp
59.1385428905	1.899574995100004	shape	0.78679394722	1.0	0.8	n/a	n/a	61.0381178856	61.0554270744	62.0382430553	n/a	oval-horizontal.bmp	oval-horizontal.bmp	oval-vertical.bmp
62.1564280987	1.8843398093999968	shape	0.619801998138	1.0	0.8	n/a	n/a	64.0407679081	64.0578920841	65.0408349037	n/a	oval-horizontal.bmp	oval-horizontal.bmp	circle.bmp
65.1584761143	1.882152795799996	shape	0.819484949112	1.0	0.8	n/a	n/a	67.0406289101	67.0559809208	68.0396358967	n/a	circle.bmp	circle.bmp	oval-vertical.bmp
68.1568169594	1.8827779292999909	shape	0.702900886536	1.0	0.8	n/a	n/a	70.0395948887	70.0557479858	71.0375170708	n/a	oval-horizontal.bmp	circle.bmp	circle.bmp
74.1292030811	1.907385826099997	face	0.74466919899	1.0	0.8	71.1152188778	74.0374751091	76.0365889072	76.0534739494	77.0361700058	n/a	03F_FE_O.jpg	05F_FE_O.jpg	05F_FE_O.jpg
77.1807758808	1.855444192899995	face	0.676753997803	1.0	0.8	n/a	n/a	79.0362200737	79.0520720482	80.0356650352	n/a	FAZ_32.jpg	FAZ_32.jpg	FAX_45.jpg
80.1688160896	1.8625547885999936	face	0.851396083832	1.0	0.8	n/a	n/a	82.0313708782	82.0487909317	83.0326220989	n/a	MAZ_128.jpg	MAZ_101.jpg	MAZ_101.jpg
83.2027208805	1.8319671154000048	face	0.755704164505	1.0	0.8	n/a	n/a	85.0346879959	85.0514349937	86.0338320732	n/a	11F_AN_O.jpg	11F_AN_O.jpg	12F_AN_O.jpg
86.2016050816	1.8313019275000075	face	0.786774873734	1.0	0.8	n/a	n/a	88.0329070091	88.0503890514	89.0334310532	n/a	26M_FE_O.jpg	33M_FE_O.jpg	33M_FE_O.jpg
89.1665599346	1.8662340640999984	face	0.883970975876	1.0	0.8	n/a	n/a	91.0327939987	91.0486390591	92.0319678783	n/a	MFZ_132.jpg	MFZ_132.jpg	MFZ_120.jpg
95.0816810131	1.9492208958000103	shape	0.661185979843	1.0	0.8	92.1148350239	95.0306088924	97.0309019089	97.0464010239	98.030025959	n/a	circle.bmp	oval-vertical.bmp	oval-vertical.bmp
98.1466040611	1.8832838538999963	shape	0.593798875809	1.0	0.8	n/a	n/a	100.029887915	100.046207905	101.029241085	n/a	oval-horizontal.bmp	oval-horizontal.bmp	circle.bmp
101.146188974	1.8799650670000003	shape	0.653486967087	1.0	0.8	n/a	n/a	103.026154041	103.042109013	104.025747061	n/a	oval-horizontal.bmp	oval-vertical.bmp	oval-vertical.bmp
104.143399	1.884893894000001	shape	0.870484113693	1.0	0.8	n/a	n/a	106.028292894	106.045068026	107.027004004	n/a	oval-horizontal.bmp	circle.bmp	circle.bmp
107.144558907	1.88243508299999	shape	0.736793041229	1.0	0.8	n/a	n/a	109.02699399	109.043728113	110.027204037	n/a	oval-horizontal.bmp	oval-horizontal.bmp	oval-vertical.bmp
110.143917084	1.881961822000008	shape	0.718809843063	1.0	0.8	n/a	n/a	112.025878906	112.041990995	113.025501966	n/a	circle.bmp	circle.bmp	oval-vertical.bmp
116.108066082	1.9325468540000088	face	0.627836942673	1.0	0.8	113.108701944	116.041251898	118.040612936	118.057667971	119.040026903	n/a	FAZ_23.jpg	FAZ_23.jpg	FAX_43.jpg
119.191270113	1.848872900000004	face	0.673389911652	1.0	0.8	n/a	n/a	121.040143013	121.056257963	122.038548946	n/a	26M_FE_O.jpg	26M_FE_O.jpg	27M_FE_O.BMP
122.172753096	1.8636720180000024	face	0.717642784119	1.0	0.8	n/a	n/a	124.036425114	124.052614927	125.03612709	n/a	MFZ_50.jpg	MFZ_50.jpg	MFX_16.jpg
125.203344107	1.835295914999989	face	0.754832983017	1.0	0.8	n/a	n/a	127.038640022	127.054960012	128.037950993	n/a	10F_AN_O.jpg	09F_AN_O.jpg	09F_AN_O.jpg
128.188683033	1.8479459290000195	face	0.933167934418	1.0	0.8	n/a	n/a	130.036628962	130.054023027	131.036185026	n/a	38M_AN_O.BMP	39M_AN_O.jpg	39M_AN_O.jpg
131.170413017	1.86564588600001	face	0.919903039932	1.0	0.8	n/a	n/a	133.036058903	133.052474022	134.0345819	n/a	FFZ_102.jpg	FFX_130.jpg	FFX_130.jpg
137.085726023	1.9488940239999977	shape	0.610799074173	1.0	0.8	134.123835087	137.034168005	139.034620047	139.050642014	140.033653021	n/a	oval-horizontal.bmp	oval-horizontal.bmp	oval-vertical.bmp
140.150528908	1.8830771439999976	shape	0.892204046249	0.0	0.8	n/a	n/a	142.033606052	142.049649	143.032795906	n/a	oval-horizontal.bmp	oval-vertical.bmp	oval-vertical.bmp
143.163476944	1.866644143999992	shape	0.753216981888	1.0	0.8	n/a	n/a	145.030121088	145.045975924	146.031498909	n/a	circle.bmp	circle.bmp	oval-vertical.bmp
146.165009022	1.8665928839999992	shape	0.704192876816	1.0	0.8	n/a	n/a	148.031601906	148.048934937	149.03114295	n/a	circle.bmp	oval-vertical.bmp	oval-vertical.bmp
149.148868084	1.8824939730000096	shape	0.782530069351	1.0	0.8	n/a	n/a	151.031362057	151.047442913	152.029522896	n/a	oval-horizontal.bmp	circle.bmp	circle.bmp
152.147444963	1.8823449619999904	shape	0.750935077667	1.0	0.8	n/a	n/a	154.029789925	154.046447039	155.02896595	n/a	oval-horizontal.bmp	oval-horizontal.bmp	circle.bmp
158.120774031	1.906838894000004	face	1.06206488609	1.0	0.8	155.11676693	158.027426004	160.027612925	160.044251919	161.027090073	n/a	20M_FE_O.jpg	21M_FE_O.jpg	21M_FE_O.jpg
161.193758965	1.833214043999988	face	0.908217906952	1.0	0.8	n/a	n/a	163.026973009	163.04311204	164.02630806	n/a	01F_AN_O.jpg	07F_AN_O.jpg	07F_AN_O.jpg
164.174009085	1.8664538860000164	face	0.819832086563	1.0	0.8	n/a	n/a	166.040462971	166.056194067	167.02561903	n/a	FFX_139.jpg	FFZ_102.jpg	FFZ_102.jpg
167.2110641	1.8150379660000056	face	0.985505104065	1.0	0.8	n/a	n/a	169.026102066	169.042421103	170.041407108	n/a	23M_AN_O.jpg	23M_AN_O.jpg	22M_AN_O.jpg
170.191515923	1.8497960560000024	face	0.768004894257	1.0	0.8	n/a	n/a	172.041311979	172.057199955	173.040817976	n/a	MAZ_146.jpg	MAZ_146.jpg	MAX_233.jpg
173.207703114	1.831761837000016	face	1.00262117386	1.0	0.8	n/a	n/a	175.039464951	175.056452036	176.038943052	n/a	15F_FE_O.jpg	15F_FE_O.jpg	16F_FE_O.jpg
179.08116293	1.9574420449999927	shape	0.594115018845	1.0	0.8	176.128067017	179.038512945	181.038604975	181.054656029	182.037280083	n/a	oval-horizontal.bmp	oval-vertical.bmp	oval-vertical.bmp
182.165601015	1.871433972999995	shape	0.542109966278	1.0	0.8	n/a	n/a	184.037034988	184.053158045	185.036813974	n/a	circle.bmp	oval-vertical.bmp	oval-vertical.bmp
185.167711973	1.866595984000014	shape	0.71826004982	1.0	0.8	n/a	n/a	187.034307957	187.05071497	188.036257029	n/a	oval-horizontal.bmp	oval-horizontal.bmp	oval-vertical.bmp
188.168720007	1.8671400550000208	shape	0.770816087723	1.0	0.8	n/a	n/a	190.035860062	190.052021027	191.035248041	n/a	oval-horizontal.bmp	oval-horizontal.bmp	circle.bmp
191.152043104	1.8831160070000124	shape	0.869276046753	1.0	0.8	n/a	n/a	193.035159111	193.051536083	194.033487082	n/a	circle.bmp	circle.bmp	oval-vertical.bmp
194.167339087	1.8661739820000207	shape	0.649811029434	1.0	0.8	n/a	n/a	196.033513069	196.04992795	197.032869101	n/a	oval-horizontal.bmp	circle.bmp	circle.bmp
200.099281073	1.932531833000013	face	0.626970052719	1.0	0.8	197.124423981	200.031363964	202.031812906	202.047683954	203.031159878	n/a	FFX_54.jpg	FFX_54.jpg	FAX_51.jpg
203.193528891	1.8373270030000128	face	0.675216913223	1.0	0.8	n/a	n/a	205.030855894	205.04686904	206.029994965	n/a	40M_FE_O.BMP	41M_FE_O.jpg	41M_FE_O.jpg
206.197556973	1.8298599720000084	face	0.584336996078	1.0	0.8	n/a	n/a	208.027416945	208.044872999	209.029676914	n/a	29M_AN_O.jpg	29M_AN_O.jpg	28M_AN_O.jpg
209.178647041	1.8507690429999848	face	0.653371095657	1.0	0.8	n/a	n/a	211.029416084	211.045679092	212.028170109	n/a	FFZ_18.jpg	FFZ_29.jpg	FFZ_29.jpg
212.212790012	1.815674067000004	face	0.751559019089	1.0	0.8	n/a	n/a	214.028464079	214.044327974	215.027302027	n/a	19F_AN_O.jpg	19F_AN_O.jpg	09F_AN_O.jpg
215.178224087	1.8482828140000152	face	1.23575496674	1.0	0.8	n/a	n/a	217.026506901	217.043737888	218.025948048	n/a	MFZ_132.jpg	MFZ_7.jpg	MFZ_7.jpg
221.067897081	1.9571869379999784	shape	0.676313877106	1.0	0.8	218.11758399	221.025449991	223.025084019	223.041805983	224.041153908	n/a	circle.bmp	oval-vertical.bmp	oval-vertical.bmp
224.169367075	1.8708820340000043	shape	0.627254962921	1.0	0.8	n/a	n/a	226.040249109	226.05748105	227.037288904	n/a	oval-horizontal.bmp	oval-horizontal.bmp	circle.bmp
227.17176795	1.868880986999983	shape	0.683796882629	1.0	0.8	n/a	n/a	229.040648937	229.056750059	230.039520979	n/a	oval-horizontal.bmp	oval-vertical.bmp	oval-vertical.bmp
230.172307014	1.867321014999988	shape	0.770826816559	1.0	0.8	n/a	n/a	232.039628029	232.055578947	233.038486958	n/a	oval-horizontal.bmp	circle.bmp	circle.bmp
233.172795057	1.865492821000004	shape	0.60147190094	1.0	0.8	n/a	n/a	235.038287878	235.054456949	236.037564993	n/a	oval-horizontal.bmp	oval-horizontal.bmp	oval-vertical.bmp
236.158693075	1.877846003000002	shape	0.631259918213	1.0	0.8	n/a	n/a	238.036539078	238.05367589	239.036582947	n/a	circle.bmp	circle.bmp	oval-vertical.bmp
242.119221926	1.9156620500000088	face	1.12686300278	1.0	0.8	239.130920887	242.035621881	244.034883976	244.051708937	245.034177065	n/a	20M_FE_O.jpg	21M_FE_O.jpg	21M_FE_O.jpg
245.214396	1.820322989999994	face	0.62445306778	1.0	0.8	n/a	n/a	247.03471899	247.050915003	248.030605078	n/a	07F_AN_O.jpg	07F_AN_O.jpg	01F_AN_O.jpg
248.181751966	1.8516490460000057	face	0.686593055725	1.0	0.8	n/a	n/a	250.033401012	250.050401926	251.033307076	n/a	FFZ_102.jpg	FFZ_102.jpg	FFX_139.jpg
251.217330933	1.8155009740000023	face	0.753551006317	1.0	0.8	n/a	n/a	253.032831907	253.048897982	254.032396078	n/a	22M_AN_O.jpg	23M_AN_O.jpg	23M_AN_O.jpg
254.182872057	1.8491790290000267	face	0.669238090515	1.0	0.8	n/a	n/a	256.032051086	256.048408031	257.031040907	n/a	MAX_233.jpg	MAZ_146.jpg	MAZ_146.jpg
257.202352047	1.82836794800005	face	0.845392942429	1.0	0.8	n/a	n/a	259.030719995	259.047501087	260.030160904	n/a	15F_FE_O.jpg	15F_FE_O.jpg	16F_FE_O.jpg
263.072066069	1.956884860999992	shape	0.65967798233	1.0	0.8	260.125801086	263.029145956	265.02895093	265.044496059	266.027506113	n/a	oval-horizontal.bmp	oval-horizontal.bmp	oval-vertical.bmp
266.15654707	1.8711109160000208	shape	1.05777406693	1.0	0.8	n/a	n/a	268.027657986	268.044636011	269.040563107	n/a	oval-horizontal.bmp	oval-vertical.bmp	oval-vertical.bmp
269.175610065	1.8517649180000149	shape	0.787446975708	1.0	0.8	n/a	n/a	271.027374983	271.043764114	272.027431965	n/a	circle.bmp	circle.bmp	oval-vertical.bmp
272.160222054	1.867158889000052	shape	1.20340394974	1.0	0.8	n/a	n/a	274.027380943	274.04264307	275.025788069	n/a	circle.bmp	oval-vertical.bmp	oval-vertical.bmp
275.160180092	1.8655188079999905	shape	0.784234046936	1.0	0.8	n/a	n/a	277.0256989	277.041964054	278.041487932	n/a	oval-horizontal.bmp	circle.bmp	circle.bmp
278.175172091	1.8662018770000373	shape	0.686046123505	1.0	0.8	n/a	n/a	280.041373968	280.056664944	281.039669991	n/a	oval-horizontal.bmp	oval-horizontal.bmp	circle.bmp
284.106450081	1.9326570030000312	face	0.776157855988	1.0	0.8	281.132335901	284.039227009	286.039107084	286.054904938	287.03824091	n/a	FFZ_18.jpg	FAZ_129.jpg	FAZ_129.jpg
287.217959881	1.8196640009999785	face	0.891242980957	1.0	0.8	n/a	n/a	289.037623882	289.054743052	290.034956932	n/a	20M_FE_O.jpg	24M_FE_O.jpg	24M_FE_O.jpg
290.186995983	1.850764036000044	face	0.904066085815	1.0	0.8	n/a	n/a	292.037760019	292.054326057	293.036928892	n/a	FAZ_23.jpg	FAX_25.jpg	FAX_25.jpg
293.221580029	1.8146488660000275	face	1.32020497322	1.0	0.8	n/a	n/a	295.036228895	295.053419113	296.035206079	n/a	33M_FE_O.jpg	33M_FE_O.jpg	35M_FE_O.jpg
296.219727993	1.815721035000024	face	0.78450012207	1.0	0.8	n/a	n/a	298.035449028	298.052087069	299.035038948	n/a	01F_AN_O.jpg	01F_AN_O.jpg	02F_AN_O.jpg
299.184839964	1.850063084999988	face	0.63618183136	1.0	0.8	n/a	n/a	301.034903049	301.050211906	302.0339849	n/a	MFZ_132.jpg	MFZ_132.jpg	MFZ_120.jpg
305.076983929	1.955546140000024	shape	0.826428890228	1.0	0.8	302.136423111	305.032849073	307.032530069	307.048356056	308.031248093	n/a	oval-horizontal.bmp	oval-vertical.bmp	oval-vertical.bmp
308.160708904	1.8709230430000048	shape	0.673297166824	1.0	0.8	n/a	n/a	310.031631947	310.048118114	311.02927494	n/a	circle.bmp	oval-vertical.bmp	oval-vertical.bmp
311.162669897	1.86832618699998	shape	0.721696853638	1.0	0.8	n/a	n/a	313.030996084	313.047501087	314.030721903	n/a	oval-horizontal.bmp	oval-horizontal.bmp	oval-vertical.bmp
314.181392908	1.8489041329999625	shape	0.78680896759	1.0	0.8	n/a	n/a	316.030297041	316.047219992	317.029344082	n/a	oval-horizontal.bmp	oval-horizontal.bmp	circle.bmp
317.163733959	1.8651030069999592	shape	0.635735034943	1.0	0.8	n/a	n/a	319.028836966	319.044782877	320.027570009	n/a	circle.bmp	circle.bmp	oval-vertical.bmp
320.161964893	1.865736007999999	shape	0.620609045029	1.0	0.8	n/a	n/a	322.027700901	322.044832945	323.02729702	n/a	oval-horizontal.bmp	circle.bmp	circle.bmp
326.12016201	1.9059100150000177	face	0.959303855896	1.0	0.8	323.129643917	326.026526928	328.026072025	328.042634964	329.02520895	n/a	17F_FE_O.jpg	18F_FE_O.jpg	18F_FE_O.jpg
329.204688072	1.8341429239999911	face	0.684895992279	1.0	0.8	n/a	n/a	331.038830996	331.054931879	332.038934946	n/a	42M_AN_O.jpg	43M_AN_O.jpg	43M_AN_O.jpg
332.223054886	1.818264006999982	face	0.687735080719	1.0	0.8	n/a	n/a	334.041318893	334.057286024	335.040822983	n/a	31M_FE_O.jpg	31M_FE_O.jpg	32M_FE_O.jpg
335.211086035	1.8292410370000312	face	0.733813047409	1.0	0.8	n/a	n/a	337.040327072	337.056962013	338.039196014	n/a	FAZ_212.jpg	FFZ_236.jpg	FFZ_236.jpg
338.29104495	1.7480919369999697	face	0.752161026001	1.0	0.8	n/a	n/a	340.039136887	340.055056095	341.038315058	n/a	06F_FE_O.jpg	06F_FE_O.jpg	08F_FE_O.jpg
341.188800097	1.849145888999999	face	0.720142126083	1.0	0.8	n/a	n/a	343.037945986	343.054768085	344.037564039	n/a	MAZ_128.jpg	MAZ_128.jpg	MAX_39.jpg
347.080169916	1.956288099000005	shape	0.642679929733	1.0	0.8	344.137322903	347.036770105	349.036458015	349.052927017	350.035753012	n/a	circle.bmp	oval-vertical.bmp	oval-vertical.bmp
350.16968894	1.8619611259999829	shape	0.604380846024	1.0	0.8	n/a	n/a	352.031650066	352.048899889	353.032733917	n/a	oval-horizontal.bmp	oval-horizontal.bmp	circle.bmp
353.168752909	1.8658490180000056	shape	0.620246171951	1.0	0.8	n/a	n/a	355.034601927	355.05171299	356.033931017	n/a	oval-horizontal.bmp	oval-vertical.bmp	oval-vertical.bmp
356.184264898	1.8494610790000363	shape	0.686450004578	1.0	0.8	n/a	n/a	358.033725977	358.050694942	359.03371501	n/a	oval-horizontal.bmp	circle.bmp	circle.bmp
359.182828903	1.8493831160000127	shape	1.06987094879	1.0	0.8	n/a	n/a	361.032212019	361.049405098	362.031779051	n/a	oval-horizontal.bmp	oval-horizontal.bmp	oval-vertical.bmp
362.171039104	1.8609428409999964	shape	0.763942956924	1.0	0.8	n/a	n/a	364.031981945	364.048526049	365.031563044	n/a	circle.bmp	circle.bmp	oval-vertical.bmp
368.09128499	1.9386808879999649	face	0.624891996384	1.0	0.8	365.137334108	368.030020952	370.029965878	370.046289921	371.029347897	n/a	FFZ_18.jpg	FAZ_129.jpg	FAZ_129.jpg
371.213496923	1.812092066000048	face	0.686842918396	0.0	0.8	n/a	n/a	373.025588989	373.042356968	374.02640605	n/a	20M_FE_O.jpg	24M_FE_O.jpg	24M_FE_O.jpg
374.193708897	1.83508300699998	face	0.651248931885	1.0	0.8	n/a	n/a	376.028791904	376.044894934	377.027828932	n/a	FAZ_23.jpg	FAX_25.jpg	FAX_25.jpg
377.211926937	1.81563806500003	face	0.801568984985	1.0	0.8	n/a	n/a	379.027565002	379.044652939	380.02641511	n/a	33M_FE_O.jpg	33M_FE_O.jpg	35M_FE_O.jpg
380.210411072	1.815456867000023	face	0.853182077408	1.0	0.8	n/a	n/a	382.025867939	382.041991949	383.025671005	n/a	01F_AN_O.jpg	01F_AN_O.jpg	02F_AN_O.jpg
383.19489193	1.8472840780000297	face	0.802340984344	1.0	0.8	n/a	n/a	385.042176008	385.058517933	386.024925947	394.438344955	MFZ_132.jpg	MFZ_132.jpg	MFZ_120.jpg
