onset	duration	trial_type	response_time	accuracy_binarized	tr_seconds	cueStartTime	cueEndTime	trialEndTime	fixStartTime	fixEndTime	runEndTime	stimLeft	stimTop	stimRight
11.0794279575	1.9510409832000004	shape	0.900160074234	1.0	0.8	8.02573084831	11.0158078671	13.0304689407	13.0463569164	14.0315179825	n/a	oval-horizontal.bmp	oval-horizontal.bmp	oval-vertical.bmp
14.1645009518	1.8673059940000003	shape	1.0215010643	1.0	0.8	n/a	n/a	16.0318069458	16.0486240387	17.0313799381	n/a	oval-horizontal.bmp	oval-vertical.bmp	oval-vertical.bmp
17.1488339901	1.8825409411999985	shape	1.03601312637	1.0	0.8	n/a	n/a	19.0313749313	19.0473599434	20.0304820538	n/a	circle.bmp	circle.bmp	oval-vertical.bmp
20.1473720074	1.8824138640999983	shape	1.15325808525	1.0	0.8	n/a	n/a	22.0297858715	22.0466339588	23.0284879208	n/a	circle.bmp	oval-vertical.bmp	oval-vertical.bmp
23.1462299824	1.882670879299997	shape	1.06856799126	1.0	0.8	n/a	n/a	25.0289008617	25.0453820229	26.0279438496	n/a	oval-horizontal.bmp	circle.bmp	circle.bmp
26.1372039318	1.8905661106000016	shape	1.11073994637	1.0	0.8	n/a	n/a	28.0277700424	28.0446069241	29.0273368359	n/a	oval-horizontal.bmp	oval-horizontal.bmp	circle.bmp
32.0937609673	1.9297719001000004	face	1.16981291771	1.0	0.8	29.1046788692	32.0261478424	34.0235328674	34.0403409004	35.0256810188	n/a	FAZ_23.jpg	FAZ_23.jpg	FAX_43.jpg
35.1748518944	1.8502340316999977	face	0.971430063248	1.0	0.8	n/a	n/a	37.0250859261	37.0421898365	38.0241160393	n/a	26M_FE_O.jpg	26M_FE_O.jpg	27M_FE_O.BMP
38.1592240334	1.865495920099996	face	1.40203714371	1.0	0.8	n/a	n/a	40.0247199535	40.041230917	41.0234749317	n/a	MFX_16.jpg	MFZ_50.jpg	MFZ_50.jpg
41.1771588326	1.846002101800004	face	0.866013050079	1.0	0.8	n/a	n/a	43.0231609344	43.0393710136	44.0221078396	n/a	09F_AN_O.jpg	09F_AN_O.jpg	10F_AN_O.jpg
44.1736888885	1.848811149599996	face	1.23359394073	1.0	0.8	n/a	n/a	46.0225000381	46.0389659405	47.0211138725	n/a	38M_AN_O.BMP	39M_AN_O.jpg	39M_AN_O.jpg
47.1557619572	1.865843057600003	face	1.17531991005	1.0	0.8	n/a	n/a	49.0216050148	49.0379400253	50.0210249424	n/a	FFZ_102.jpg	FFX_130.jpg	FFX_130.jpg
53.0672399998	1.951053857799998	shape	0.936718940735	1.0	0.8	50.0977408886	53.0199258327	55.0182938576	55.0345668793	56.0194158554	n/a	oval-horizontal.bmp	oval-vertical.bmp	oval-vertical.bmp
56.1353788376	1.901003122299997	shape	0.73740196228	1.0	0.8	n/a	n/a	58.0363819599	58.0520858765	59.0352399349	n/a	circle.bmp	oval-vertical.bmp	oval-vertical.bmp
59.1532969475	1.881521940199996	shape	1.14925384521	1.0	0.8	n/a	n/a	61.0348188877	61.0515079498	62.0336809158	n/a	oval-horizontal.bmp	oval-horizontal.bmp	oval-vertical.bmp
62.1511030197	1.8827400208	shape	1.03751802444	1.0	0.8	n/a	n/a	64.0338430405	64.049957037	65.0330200195	n/a	oval-horizontal.bmp	oval-horizontal.bmp	circle.bmp
65.1496698856	1.882761001599988	shape	0.793262958527	1.0	0.8	n/a	n/a	67.0324308872	67.0494060516	68.0319299698	n/a	circle.bmp	circle.bmp	oval-vertical.bmp
68.1410579681	1.8907730579999933	shape	0.943433046341	1.0	0.8	n/a	n/a	70.0318310261	70.0477309227	71.031170845	n/a	oval-horizontal.bmp	circle.bmp	circle.bmp
74.1268749237	1.9009139538	face	0.93622303009	1.0	0.8	71.1102209091	74.0299048424	76.0277888775	76.044852972	77.0299799442	n/a	03F_FE_O.jpg	05F_FE_O.jpg	05F_FE_O.jpg
77.162763834	1.8664891720000008	face	1.55294418335	0.0	0.8	n/a	n/a	79.029253006	79.0458989143	80.0290169716	n/a	FAZ_32.jpg	FAZ_32.jpg	FAX_45.jpg
80.1801650524	1.8478319645000028	face	n/a	0.0	0.8	n/a	n/a	82.0279970169	82.0442318916	83.0274970531	n/a	MAZ_128.jpg	MAZ_101.jpg	MAZ_101.jpg
83.1821119785	1.8452429772000016	face	0.913148880005	1.0	0.8	n/a	n/a	85.0273549557	85.0433349609	86.0263109207	n/a	11F_AN_O.jpg	11F_AN_O.jpg	12F_AN_O.jpg
86.1770908833	1.8486871719000104	face	1.01048111916	1.0	0.8	n/a	n/a	88.0257780552	88.042568922	89.0253839493	n/a	26M_FE_O.jpg	33M_FE_O.jpg	33M_FE_O.jpg
89.1685829163	1.856766939099998	face	1.07599592209	1.0	0.8	n/a	n/a	91.0253498554	91.0416560173	92.024064064	n/a	MFZ_132.jpg	MFZ_132.jpg	MFZ_120.jpg
95.0716309547	1.952400922799996	shape	1.16951799393	1.0	0.8	92.1057050228	95.0236508846	97.0240318775	97.0400669575	98.0227918625	n/a	circle.bmp	oval-vertical.bmp	oval-vertical.bmp
98.1395640373	1.8836419586999968	shape	0.854495048523	1.0	0.8	n/a	n/a	100.023205996	100.038938046	101.022428036	n/a	oval-horizontal.bmp	oval-horizontal.bmp	circle.bmp
101.140326977	1.880815983000005	shape	0.984643936157	1.0	0.8	n/a	n/a	103.02114296	103.038410902	104.020511866	n/a	oval-horizontal.bmp	oval-vertical.bmp	oval-vertical.bmp
104.139221907	1.8812820909999888	shape	0.919512987137	1.0	0.8	n/a	n/a	106.020503998	106.037163973	107.020079851	n/a	oval-horizontal.bmp	circle.bmp	circle.bmp
107.137462854	1.899027109999992	shape	0.910314798355	1.0	0.8	n/a	n/a	109.036489964	109.05240202	110.035254955	n/a	oval-horizontal.bmp	oval-horizontal.bmp	oval-vertical.bmp
110.153053045	1.88269591400001	shape	0.910379886627	1.0	0.8	n/a	n/a	112.035748959	112.051840067	113.034554005	n/a	circle.bmp	circle.bmp	oval-vertical.bmp
116.09798193	1.936376095	face	1.0694270134	1.0	0.8	113.117243052	116.034252882	118.034358025	118.050796032	119.033112049	n/a	FAZ_23.jpg	FAZ_23.jpg	FAX_43.jpg
119.183204889	1.8493249420000093	face	0.921282052994	1.0	0.8	n/a	n/a	121.032529831	121.049295902	122.03279686	n/a	26M_FE_O.jpg	26M_FE_O.jpg	27M_FE_O.BMP
122.166867971	1.8652138709999944	face	0.981298923492	1.0	0.8	n/a	n/a	124.032081842	124.04795289	125.030827045	n/a	MFZ_50.jpg	MFZ_50.jpg	MFX_16.jpg
125.19807601	1.832854986000001	face	0.835844993591	1.0	0.8	n/a	n/a	127.030930996	127.047499895	128.029970884	n/a	10F_AN_O.jpg	09F_AN_O.jpg	09F_AN_O.jpg
128.180994034	1.8482038969999903	face	1.04376101494	1.0	0.8	n/a	n/a	130.029197931	130.046460867	131.029193878	n/a	38M_AN_O.BMP	39M_AN_O.jpg	39M_AN_O.jpg
131.163295984	1.8655998710000008	face	1.19105911255	1.0	0.8	n/a	n/a	133.028895855	133.044894934	134.028331041	n/a	FFZ_102.jpg	FFX_130.jpg	FFX_130.jpg
137.075564861	1.952157975000005	shape	1.26779699326	1.0	0.8	134.113740921	137.027616978	139.027722836	139.044301987	140.026993036	n/a	oval-horizontal.bmp	oval-horizontal.bmp	oval-vertical.bmp
140.143468857	1.882476091000001	shape	0.970653057098	1.0	0.8	n/a	n/a	142.025944948	142.043434858	143.025876045	n/a	oval-horizontal.bmp	oval-vertical.bmp	oval-vertical.bmp
143.14309001	1.8823728559999893	shape	0.869857788086	1.0	0.8	n/a	n/a	145.025462866	145.042538881	146.025084972	n/a	circle.bmp	circle.bmp	oval-vertical.bmp
146.141885996	1.881938933999976	shape	1.00264501572	1.0	0.8	n/a	n/a	148.02382493	148.040804863	149.023164034	n/a	circle.bmp	oval-vertical.bmp	oval-vertical.bmp
149.141440868	1.881862164000012	shape	n/a	0.0	0.8	n/a	n/a	151.023303032	151.040061951	152.02265501	n/a	oval-horizontal.bmp	circle.bmp	circle.bmp
152.139937878	1.881857155999996	shape	0.844420909882	1.0	0.8	n/a	n/a	154.021795034	154.039017916	155.021265984	n/a	oval-horizontal.bmp	oval-horizontal.bmp	circle.bmp
158.121607065	1.8996789459999943	face	1.38903808594	1.0	0.8	155.10856986	158.035400867	160.021286011	160.037379026	161.020138979	n/a	20M_FE_O.jpg	21M_FE_O.jpg	21M_FE_O.jpg
161.18847084	1.8315041070000009	face	1.45104718208	1.0	0.8	n/a	n/a	163.019974947	163.037072897	164.019904852	n/a	01F_AN_O.jpg	07F_AN_O.jpg	07F_AN_O.jpg
164.155431986	1.8804979319999973	face	1.26671695709	1.0	0.8	n/a	n/a	166.035929918	166.052435875	167.035465002	n/a	FFX_139.jpg	FFZ_102.jpg	FFZ_102.jpg
167.204319954	1.830723046999992	face	1.21906781197	1.0	0.8	n/a	n/a	169.035043001	169.051100969	170.033895969	n/a	23M_AN_O.jpg	23M_AN_O.jpg	22M_AN_O.jpg
170.175565004	1.857921839	face	1.13013482094	1.0	0.8	n/a	n/a	172.033486843	172.050704002	173.033143044	n/a	MAZ_146.jpg	MAZ_146.jpg	MAX_233.jpg
173.193001986	1.8397788999999989	face	n/a	0.0	0.8	n/a	n/a	175.032780886	175.049260855	176.031546831	n/a	15F_FE_O.jpg	15F_FE_O.jpg	16F_FE_O.jpg
179.079526901	1.952260018000004	shape	1.13847494125	1.0	0.8	176.118979931	179.029011011	181.031786919	181.047890902	182.03133893	n/a	oval-horizontal.bmp	oval-vertical.bmp	oval-vertical.bmp
182.148401022	1.8820109369999896	shape	0.786705970764	1.0	0.8	n/a	n/a	184.030411959	184.047543049	185.029662848	n/a	circle.bmp	oval-vertical.bmp	oval-vertical.bmp
185.146661997	1.883030891000004	shape	0.833540916443	1.0	0.8	n/a	n/a	187.029692888	187.046359062	188.028403044	n/a	oval-horizontal.bmp	oval-horizontal.bmp	oval-vertical.bmp
188.146082878	1.8819770810000025	shape	0.919841051102	1.0	0.8	n/a	n/a	190.028059959	190.045029879	191.027595997	n/a	oval-horizontal.bmp	oval-horizontal.bmp	circle.bmp
191.14465785	1.882846117000014	shape	0.761888980865	1.0	0.8	n/a	n/a	193.027503967	193.043951035	194.02678895	n/a	circle.bmp	circle.bmp	oval-vertical.bmp
194.14437604	1.882300853000004	shape	0.609531879425	1.0	0.8	n/a	n/a	196.026676893	196.043275833	197.025814056	n/a	oval-horizontal.bmp	circle.bmp	circle.bmp
200.089467049	1.935286997999981	face	1.13795495033	1.0	0.8	197.115648985	200.024446011	202.024754047	202.041100025	203.02453804	n/a	FFX_54.jpg	FFX_54.jpg	FAX_51.jpg
203.174653053	1.84972190900001	face	0.836089849472	1.0	0.8	n/a	n/a	205.024374962	205.040586948	206.023578882	n/a	40M_FE_O.BMP	41M_FE_O.jpg	41M_FE_O.jpg
206.190465927	1.83330893500002	face	0.866977930069	1.0	0.8	n/a	n/a	208.023774862	208.039499998	209.022101879	n/a	29M_AN_O.jpg	29M_AN_O.jpg	28M_AN_O.jpg
209.161237955	1.86088705100002	face	0.815465927124	1.0	0.8	n/a	n/a	211.022125006	211.03823185	212.020972013	n/a	FFZ_18.jpg	FFZ_29.jpg	FFZ_29.jpg
212.188246012	1.8326239579999992	face	1.11018013954	1.0	0.8	n/a	n/a	214.02086997	214.037773848	215.02047205	n/a	19F_AN_O.jpg	19F_AN_O.jpg	09F_AN_O.jpg
215.164168835	1.8558170789999904	face	1.04230594635	1.0	0.8	n/a	n/a	217.019985914	217.036278963	218.019379854	n/a	MFZ_132.jpg	MFZ_7.jpg	MFZ_7.jpg
221.083549976	1.951241017000001	shape	1.23789906502	1.0	0.8	218.110949039	221.035328865	223.034790993	223.052130938	224.034652948	n/a	circle.bmp	oval-vertical.bmp	oval-vertical.bmp
224.152706861	1.8817381859999784	shape	0.852180957794	1.0	0.8	n/a	n/a	226.034445047	226.05072093	227.034045935	n/a	oval-horizontal.bmp	oval-horizontal.bmp	circle.bmp
227.152996063	1.8795979030000185	shape	0.734230995178	1.0	0.8	n/a	n/a	229.032593966	229.049437046	230.031838894	n/a	oval-horizontal.bmp	oval-vertical.bmp	oval-vertical.bmp
230.149693966	1.8825628760000088	shape	0.619754076004	1.0	0.8	n/a	n/a	232.032256842	232.048359871	233.031445026	n/a	oval-horizontal.bmp	circle.bmp	circle.bmp
233.156806946	1.873975037999997	shape	1.07872486115	1.0	0.8	n/a	n/a	235.030781984	235.047863007	236.030326843	n/a	oval-horizontal.bmp	oval-horizontal.bmp	oval-vertical.bmp
236.147348881	1.8833780289999995	shape	0.676512002945	1.0	0.8	n/a	n/a	238.03072691	238.046810865	239.029949903	n/a	circle.bmp	circle.bmp	oval-vertical.bmp
242.111101866	1.91798996899999	face	n/a	0.0	0.8	239.122324944	242.02917099	244.029091835	244.045089006	245.028126955	n/a	20M_FE_O.jpg	21M_FE_O.jpg	21M_FE_O.jpg
245.195380926	1.8330719469999792	face	0.902590990067	1.0	0.8	n/a	n/a	247.028452873	247.044693947	248.026918888	n/a	07F_AN_O.jpg	07F_AN_O.jpg	01F_AN_O.jpg
248.164478064	1.8625068659999893	face	0.933346033096	1.0	0.8	n/a	n/a	250.02698493	250.043608904	251.026056051	n/a	FFZ_102.jpg	FFZ_102.jpg	FFX_139.jpg
251.196614981	1.8291459079999868	face	0.869438171387	1.0	0.8	n/a	n/a	253.025760889	253.042356968	254.02499485	n/a	22M_AN_O.jpg	23M_AN_O.jpg	23M_AN_O.jpg
254.166316032	1.8585038190000205	face	1.01230692863	1.0	0.8	n/a	n/a	256.024819851	256.040777922	257.024260998	n/a	MAX_233.jpg	MAZ_146.jpg	MAZ_146.jpg
257.191069841	1.8332421779999777	face	1.57446694374	1.0	0.8	n/a	n/a	259.024312019	259.040374994	260.023071051	n/a	15F_FE_O.jpg	15F_FE_O.jpg	16F_FE_O.jpg
263.07166791	1.9500911230000493	shape	0.821087121964	1.0	0.8	260.117188931	263.0203619	265.021759033	265.038930893	266.022222996	n/a	oval-horizontal.bmp	oval-horizontal.bmp	oval-vertical.bmp
266.156661987	1.8660590650000013	shape	0.870260953903	1.0	0.8	n/a	n/a	268.022721052	268.03767705	269.020730972	n/a	oval-horizontal.bmp	oval-vertical.bmp	oval-vertical.bmp
269.154321909	1.865607977000025	shape	0.767291069031	1.0	0.8	n/a	n/a	271.019929886	271.036085844	272.019387007	n/a	circle.bmp	circle.bmp	oval-vertical.bmp
272.142739058	1.8934469220000096	shape	0.83056807518	1.0	0.8	n/a	n/a	274.03618598	274.052525997	275.035181046	n/a	circle.bmp	oval-vertical.bmp	oval-vertical.bmp
275.161128998	1.8742749689999985	shape	0.911285161972	1.0	0.8	n/a	n/a	277.035403967	277.051589012	278.033701897	n/a	oval-horizontal.bmp	circle.bmp	circle.bmp
278.161653996	1.8719019879999903	shape	1.02685284615	1.0	0.8	n/a	n/a	280.033555984	280.049890041	281.033489943	n/a	oval-horizontal.bmp	oval-horizontal.bmp	circle.bmp
284.098039865	1.9342961320000427	face	0.804985046387	1.0	0.8	281.127591848	284.030128002	286.032335997	286.049692869	287.031908035	n/a	FFZ_18.jpg	FAZ_129.jpg	FAZ_129.jpg
287.202558041	1.82905697800004	face	1.31923007965	1.0	0.8	n/a	n/a	289.031615019	289.048326969	290.031369925	n/a	20M_FE_O.jpg	24M_FE_O.jpg	24M_FE_O.jpg
290.18197298	1.847867012999984	face	0.883006095886	1.0	0.8	n/a	n/a	292.029839993	292.047009945	293.03016305	n/a	FAZ_23.jpg	FAX_25.jpg	FAX_25.jpg
293.197155952	1.8326570990000164	face	1.00221014023	1.0	0.8	n/a	n/a	295.029813051	295.045264006	296.028758049	n/a	33M_FE_O.jpg	33M_FE_O.jpg	35M_FE_O.jpg
296.195979834	1.833161114999996	face	1.24347996712	1.0	0.8	n/a	n/a	298.029140949	298.0456779	299.027534962	n/a	01F_AN_O.jpg	01F_AN_O.jpg	02F_AN_O.jpg
299.172591925	1.8546810149999828	face	1.20922398567	1.0	0.8	n/a	n/a	301.02727294	301.044503927	302.027135849	n/a	MFZ_132.jpg	MFZ_132.jpg	MFZ_120.jpg
305.07473588	1.952260970999987	shape	1.03797006607	1.0	0.8	302.122781992	305.02678299	307.026996851	307.042315006	308.025910854	n/a	oval-horizontal.bmp	oval-vertical.bmp	oval-vertical.bmp
308.159667969	1.8650290960000009	shape	0.602132081985	1.0	0.8	n/a	n/a	310.024697065	310.042048931	311.023855925	n/a	circle.bmp	oval-vertical.bmp	oval-vertical.bmp
311.158654928	1.8653321270000447	shape	1.35224699974	1.0	0.8	n/a	n/a	313.023987055	313.040799856	314.023138046	n/a	oval-horizontal.bmp	oval-horizontal.bmp	oval-vertical.bmp
314.146944046	1.8755447860000345	shape	0.630843877792	1.0	0.8	n/a	n/a	316.022488832	316.039614916	317.022537947	n/a	oval-horizontal.bmp	oval-horizontal.bmp	circle.bmp
317.156705856	1.865710020000052	shape	0.761613130569	1.0	0.8	n/a	n/a	319.022415876	319.037927866	320.021494865	n/a	circle.bmp	circle.bmp	oval-vertical.bmp
320.149427891	1.8714289659999963	shape	0.775233983994	1.0	0.8	n/a	n/a	322.020856857	322.03797102	323.020210028	n/a	oval-horizontal.bmp	circle.bmp	circle.bmp
326.119382858	1.900977135000005	face	1.03762888908	1.0	0.8	323.116750002	326.02044487	328.020359993	328.036089897	329.019752026	n/a	17F_FE_O.jpg	18F_FE_O.jpg	18F_FE_O.jpg
329.187145948	1.8483378889999929	face	0.968986988068	1.0	0.8	n/a	n/a	331.035483837	331.051764965	332.034869909	n/a	42M_AN_O.jpg	43M_AN_O.jpg	43M_AN_O.jpg
332.205097914	1.8294301029999929	face	1.14920091629	1.0	0.8	n/a	n/a	334.034528017	334.049986839	335.033624887	n/a	31M_FE_O.jpg	31M_FE_O.jpg	32M_FE_O.jpg
335.184275866	1.8491160869999703	face	0.970105171204	1.0	0.8	n/a	n/a	337.033391953	337.050034046	338.032091856	n/a	FAZ_212.jpg	FFZ_236.jpg	FFZ_236.jpg
338.199893951	1.832241059000012	face	1.27397489548	1.0	0.8	n/a	n/a	340.03213501	340.049057961	341.031914949	n/a	06F_FE_O.jpg	06F_FE_O.jpg	08F_FE_O.jpg
341.17659688	1.855165005000004	face	1.58896708488	1.0	0.8	n/a	n/a	343.031761885	343.047945976	344.027767897	n/a	MAZ_128.jpg	MAZ_128.jpg	MAX_39.jpg
347.079067945	1.9515728959999592	shape	0.953934907913	1.0	0.8	344.126240969	347.030333996	349.030640841	349.046499968	350.028630018	n/a	circle.bmp	oval-vertical.bmp	oval-vertical.bmp
350.163094997	1.865779877000023	shape	0.685264825821	1.0	0.8	n/a	n/a	352.028874874	352.044837952	353.028604984	n/a	oval-horizontal.bmp	oval-horizontal.bmp	circle.bmp
353.162006855	1.866044044999967	shape	0.718831062317	1.0	0.8	n/a	n/a	355.0280509	355.044216871	356.027466059	n/a	oval-horizontal.bmp	oval-vertical.bmp	oval-vertical.bmp
356.161110878	1.866336106999995	shape	0.918625831604	0.0	0.8	n/a	n/a	358.027446985	358.043526888	359.026284933	n/a	oval-horizontal.bmp	circle.bmp	circle.bmp
359.160313845	1.8656671039999533	shape	1.06005215645	1.0	0.8	n/a	n/a	361.025980949	361.042048931	362.024612904	n/a	oval-horizontal.bmp	oval-horizontal.bmp	oval-vertical.bmp
362.159152985	1.8657648559999984	shape	1.62420892715	1.0	0.8	n/a	n/a	364.024917841	364.041692972	365.020614862	n/a	circle.bmp	circle.bmp	oval-vertical.bmp
368.090184927	1.9336829189999776	face	1.53716492653	1.0	0.8	365.122488976	368.023649931	370.023867846	370.040658951	371.022878885	n/a	FFZ_18.jpg	FAZ_129.jpg	FAZ_129.jpg
371.209180832	1.813418149999961	face	0.834337949753	1.0	0.8	n/a	n/a	373.022598982	373.0391469	374.021715879	n/a	20M_FE_O.jpg	24M_FE_O.jpg	24M_FE_O.jpg
374.172679901	1.8483231069999988	face	1.11965489388	1.0	0.8	n/a	n/a	376.021003008	376.038264036	377.020810843	n/a	FAZ_23.jpg	FAX_25.jpg	FAX_25.jpg
377.195085049	1.8256080150000005	face	1.09574699402	1.0	0.8	n/a	n/a	379.020693064	379.036728859	380.019705057	n/a	33M_FE_O.jpg	33M_FE_O.jpg	35M_FE_O.jpg
380.19571805	1.8241019250000363	face	0.82705783844	1.0	0.8	n/a	n/a	382.019819975	382.036130905	383.035842896	n/a	01F_AN_O.jpg	01F_AN_O.jpg	02F_AN_O.jpg
383.186460972	1.8484199049999568	face	0.975345134735	1.0	0.8	n/a	n/a	385.034880877	385.052057981	386.031771898	394.431845903	MFZ_132.jpg	MFZ_132.jpg	MFZ_120.jpg
