onset	duration	trial_type	response_time	accuracy_binarized	tr_seconds	cueStartTime	cueEndTime	trialEndTime	fixStartTime	fixEndTime	runEndTime	stimLeft	stimTop	stimRight
11.0853350163	1.9486870765000008	shape	1.10231614113	1.0	0.8	8.02912998199	11.0182700157	13.0340220928	13.0507600307	14.0336389542	n/a	oval-horizontal.bmp	oval-horizontal.bmp	oval-vertical.bmp
14.1678371429	1.8658258915	shape	1.02079701424	1.0	0.8	n/a	n/a	16.0336630344	16.0497260094	17.033205986	n/a	oval-horizontal.bmp	oval-vertical.bmp	oval-vertical.bmp
17.1501410007	1.8994569779000017	shape	0.725481987	1.0	0.8	n/a	n/a	19.0495979786	19.0659339428	20.0324339867	n/a	circle.bmp	circle.bmp	oval-vertical.bmp
20.1490850449	1.8996748924	shape	0.609834194183	1.0	0.8	n/a	n/a	22.0487599373	22.0650229454	23.0481350422	n/a	circle.bmp	oval-vertical.bmp	oval-vertical.bmp
23.1657619476	1.879526138300001	shape	0.649849891663	1.0	0.8	n/a	n/a	25.0452880859	25.0617799759	26.0446259975	n/a	oval-horizontal.bmp	circle.bmp	circle.bmp
26.1630649567	1.883872032099997	shape	0.939095973969	1.0	0.8	n/a	n/a	28.0469369888	28.0628709793	29.0464060307	n/a	oval-horizontal.bmp	oval-horizontal.bmp	circle.bmp
32.1133129597	1.931325197199996	face	0.819082021713	1.0	0.8	29.1333110332	32.0451290607	34.0446381569	34.0617001057	35.0443711281	n/a	FAZ_23.jpg	FAZ_23.jpg	FAX_43.jpg
35.1955089569	1.8484430313000004	face	0.868975162506	1.0	0.8	n/a	n/a	37.0439519882	37.0600571632	38.0439009666	n/a	26M_FE_O.jpg	26M_FE_O.jpg	27M_FE_O.BMP
38.186011076	1.8572690486999968	face	0.727871179581	1.0	0.8	n/a	n/a	40.0432801247	40.0599300861	41.0426180363	n/a	MFX_16.jpg	MFZ_50.jpg	MFZ_50.jpg
41.2045340538	1.838006973299997	face	0.724630117416	1.0	0.8	n/a	n/a	43.0425410271	43.0587251186	44.0417881012	n/a	09F_AN_O.jpg	09F_AN_O.jpg	10F_AN_O.jpg
44.1927859783	1.845556974399997	face	0.819002866745	1.0	0.8	n/a	n/a	46.0383429527	46.055437088	47.0413529873	n/a	38M_AN_O.BMP	39M_AN_O.jpg	39M_AN_O.jpg
47.1736381054	1.8674159050000008	face	0.705317020416	1.0	0.8	n/a	n/a	49.0410540104	49.0570430756	50.0405230522	n/a	FFZ_102.jpg	FFX_130.jpg	FFX_130.jpg
53.0920641422	1.9469549656	shape	0.779092073441	1.0	0.8	50.119658947	53.0388050079	55.0390191078	55.0549440384	56.0382621288	n/a	oval-horizontal.bmp	oval-vertical.bmp	oval-vertical.bmp
56.1557090282	1.8815569877999965	shape	0.569529056549	1.0	0.8	n/a	n/a	58.037266016	58.0546340942	59.0372741222	n/a	circle.bmp	oval-vertical.bmp	oval-vertical.bmp
59.1466050148	1.8902189732	shape	0.761090993881	1.0	0.8	n/a	n/a	61.036823988	61.0529961586	62.0365941525	n/a	oval-horizontal.bmp	oval-horizontal.bmp	oval-vertical.bmp
62.1482610703	1.888339042600002	shape	0.959244012833	1.0	0.8	n/a	n/a	64.0366001129	64.0525691509	65.0357151031	n/a	oval-horizontal.bmp	oval-horizontal.bmp	circle.bmp
65.1498501301	1.883093833899992	shape	0.73655796051	1.0	0.8	n/a	n/a	67.032943964	67.0492711067	68.0351171494	n/a	circle.bmp	circle.bmp	oval-vertical.bmp
68.1506259441	1.883594036100007	shape	0.737823009491	1.0	0.8	n/a	n/a	70.0342199802	70.051322937	71.0343930721	n/a	oval-horizontal.bmp	circle.bmp	circle.bmp
74.1346030235	1.898241996799996	face	0.851994037628	0.0	0.8	71.1135571003	74.0334630013	76.0328450203	76.0493659973	77.048830986	n/a	03F_FE_O.jpg	05F_FE_O.jpg	05F_FE_O.jpg
77.1832060814	1.8654918671000047	face	1.10281801224	1.0	0.8	n/a	n/a	79.0486979485	79.0648300648	80.0474281311	n/a	FAZ_32.jpg	FAZ_32.jpg	FAX_45.jpg
80.1816310883	1.8654329776000085	face	1.76130795479	1.0	0.8	n/a	n/a	82.0470640659	82.0641460419	83.047068119	n/a	MAZ_128.jpg	MAZ_101.jpg	MAZ_101.jpg
83.1997289658	1.846880197499999	face	0.890965223312	1.0	0.8	n/a	n/a	85.0466091633	85.0625710487	86.046049118	n/a	11F_AN_O.jpg	11F_AN_O.jpg	12F_AN_O.jpg
86.1971759796	1.847054958399994	face	0.852797031403	1.0	0.8	n/a	n/a	88.044230938	88.0604290962	89.0457191467	n/a	26M_FE_O.jpg	33M_FE_O.jpg	33M_FE_O.jpg
89.1786460876	1.8667409419999927	face	1.0205450058	1.0	0.8	n/a	n/a	91.0453870296	91.0621600151	92.0443150997	n/a	MFZ_132.jpg	MFZ_132.jpg	MFZ_120.jpg
95.0953450203	1.948265075699993	shape	0.985584974289	1.0	0.8	92.12885499	95.0436010361	97.043610096	97.0596139431	98.0427851677	n/a	circle.bmp	oval-vertical.bmp	oval-vertical.bmp
98.1601040363	1.8825230597000056	shape	0.586492061615	1.0	0.8	n/a	n/a	100.042627096	100.059290171	101.041913033	n/a	oval-horizontal.bmp	oval-horizontal.bmp	circle.bmp
101.158993959	1.882912159	shape	0.594006061554	1.0	0.8	n/a	n/a	103.041906118	103.058166027	104.040327072	n/a	oval-horizontal.bmp	oval-vertical.bmp	oval-vertical.bmp
104.15308404	1.887423992000009	shape	0.624690055847	0.0	0.8	n/a	n/a	106.040508032	106.056612968	107.040375948	n/a	oval-horizontal.bmp	circle.bmp	circle.bmp
107.157344103	1.880143880999995	shape	0.720677852631	1.0	0.8	n/a	n/a	109.037487984	109.055339098	110.039472103	n/a	oval-horizontal.bmp	oval-horizontal.bmp	oval-vertical.bmp
110.155215979	1.8839240069999903	shape	0.803925991058	1.0	0.8	n/a	n/a	112.039139986	112.056111097	113.038707018	n/a	circle.bmp	circle.bmp	oval-vertical.bmp
116.104526997	1.932513952000008	face	0.85093998909	1.0	0.8	113.124181986	116.036667109	118.037040949	118.053657055	119.036530972	n/a	FAZ_23.jpg	FAZ_23.jpg	FAX_43.jpg
119.177217007	1.85925197600001	face	0.815012931824	1.0	0.8	n/a	n/a	121.036468983	121.05263114	122.035567045	n/a	26M_FE_O.jpg	26M_FE_O.jpg	27M_FE_O.BMP
122.170192003	1.8655819900000097	face	0.661211967468	1.0	0.8	n/a	n/a	124.035773993	124.051908016	125.034754992	n/a	MFZ_50.jpg	MFZ_50.jpg	MFX_16.jpg
125.197489023	1.8367481229999925	face	1.14159393311	1.0	0.8	n/a	n/a	127.034237146	127.051239967	128.046877146	n/a	10F_AN_O.jpg	09F_AN_O.jpg	09F_AN_O.jpg
128.199023962	1.834791182999993	face	0.72012591362	1.0	0.8	n/a	n/a	130.033815145	130.050816059	131.033570051	n/a	38M_AN_O.BMP	39M_AN_O.jpg	39M_AN_O.jpg
131.166041136	1.866912842000005	face	1.0365049839	1.0	0.8	n/a	n/a	133.032953978	133.049415112	134.032886982	n/a	FFZ_102.jpg	FFX_130.jpg	FFX_130.jpg
137.099650145	1.9486298559999968	shape	1.06856608391	1.0	0.8	134.121737957	137.048175097	139.048280001	139.064172983	140.04705596	n/a	oval-horizontal.bmp	oval-horizontal.bmp	oval-vertical.bmp
140.164046049	1.8824300769999809	shape	0.594900846481	1.0	0.8	n/a	n/a	142.046476126	142.06287694	143.046631098	n/a	oval-horizontal.bmp	oval-vertical.bmp	oval-vertical.bmp
143.163331985	1.882339954999992	shape	0.84438586235	1.0	0.8	n/a	n/a	145.04567194	145.062692165	146.045174122	n/a	circle.bmp	circle.bmp	oval-vertical.bmp
146.163354158	1.881954909000001	shape	0.723196029663	1.0	0.8	n/a	n/a	148.045309067	148.061388969	149.041126966	n/a	circle.bmp	oval-vertical.bmp	oval-vertical.bmp
149.159520149	1.885017871999992	shape	0.753461122513	1.0	0.8	n/a	n/a	151.044538021	151.061347008	152.043720961	n/a	oval-horizontal.bmp	circle.bmp	circle.bmp
152.162203074	1.8814239499999983	shape	0.700951099396	1.0	0.8	n/a	n/a	154.043627024	154.060893059	155.042829037	n/a	oval-horizontal.bmp	oval-horizontal.bmp	circle.bmp
158.126449108	1.9153578279999977	face	1.48579907417	1.0	0.8	155.131137133	158.041381121	160.041806936	160.057691097	161.040927172	n/a	20M_FE_O.jpg	21M_FE_O.jpg	21M_FE_O.jpg
161.207957983	1.8321771619999936	face	1.10283493996	1.0	0.8	n/a	n/a	163.040135145	163.057428122	164.039931059	n/a	01F_AN_O.jpg	07F_AN_O.jpg	07F_AN_O.jpg
164.174904108	1.8653049469999985	face	0.943418979645	1.0	0.8	n/a	n/a	166.040209055	166.056509018	167.039543152	n/a	FFX_139.jpg	FFZ_102.jpg	FFZ_102.jpg
167.203050137	1.8318638800000144	face	0.78843998909	1.0	0.8	n/a	n/a	169.034914017	169.051692009	170.035691977	n/a	23M_AN_O.jpg	23M_AN_O.jpg	22M_AN_O.jpg
170.169764996	1.8690600390000045	face	0.769844770432	1.0	0.8	n/a	n/a	172.038825035	172.054887056	173.037981033	n/a	MAZ_146.jpg	MAZ_146.jpg	MAX_233.jpg
173.204838991	1.833289146999988	face	0.900839090347	1.0	0.8	n/a	n/a	175.038128138	175.053877115	176.036796093	n/a	15F_FE_O.jpg	15F_FE_O.jpg	16F_FE_O.jpg
179.086469173	1.9486038689999816	shape	0.56912112236	1.0	0.8	176.125115156	179.036417007	181.035073042	181.052142143	182.035115957	n/a	oval-horizontal.bmp	oval-vertical.bmp	oval-vertical.bmp
182.152302027	1.882305145000004	shape	0.594339847565	1.0	0.8	n/a	n/a	184.034607172	184.05062294	185.034199953	n/a	circle.bmp	oval-vertical.bmp	oval-vertical.bmp
185.151368141	1.8826348780000048	shape	0.676859140396	1.0	0.8	n/a	n/a	187.034003019	187.050105095	188.032900095	n/a	oval-horizontal.bmp	oval-horizontal.bmp	oval-vertical.bmp
188.162199974	1.884263992000001	shape	0.574820041656	1.0	0.8	n/a	n/a	190.046463966	190.062493086	191.046548128	n/a	oval-horizontal.bmp	oval-horizontal.bmp	circle.bmp
191.167119026	1.865483998999992	shape	1.03898191452	1.0	0.8	n/a	n/a	193.032603025	193.049175978	194.04855895	n/a	circle.bmp	circle.bmp	oval-vertical.bmp
194.165508986	1.8820240489999944	shape	1.13709592819	1.0	0.8	n/a	n/a	196.047533035	196.064826965	197.047902107	n/a	oval-horizontal.bmp	circle.bmp	circle.bmp
200.113892078	1.932563067000018	face	1.05198097229	1.0	0.8	197.137634993	200.046084166	202.046455145	202.063102961	203.044764996	n/a	FFX_54.jpg	FFX_54.jpg	FAX_51.jpg
203.205440998	1.8397741320000025	face	0.878947019577	1.0	0.8	n/a	n/a	205.04521513	205.061905146	206.04451108	n/a	40M_FE_O.BMP	41M_FE_O.jpg	41M_FE_O.jpg
206.205366135	1.8383748530000048	face	0.923413991928	1.0	0.8	n/a	n/a	208.043740988	208.061054945	209.042947054	n/a	29M_AN_O.jpg	29M_AN_O.jpg	28M_AN_O.jpg
209.190088987	1.849548102	face	0.624839067459	1.0	0.8	n/a	n/a	211.039637089	211.057010174	212.039740086	n/a	FFZ_18.jpg	FFZ_29.jpg	FFZ_29.jpg
212.208527088	1.834959983999994	face	0.786197900772	1.0	0.8	n/a	n/a	214.043487072	214.060033083	215.041878939	n/a	19F_AN_O.jpg	19F_AN_O.jpg	09F_AN_O.jpg
215.192054987	1.8501131529999952	face	0.953452110291	1.0	0.8	n/a	n/a	217.04216814	217.059211969	218.041536093	n/a	MFZ_132.jpg	MFZ_7.jpg	MFZ_7.jpg
221.090847015	1.9492549899999856	shape	0.653401851654	1.0	0.8	218.136898994	221.040086031	223.040102005	223.055827141	224.039587975	n/a	circle.bmp	oval-vertical.bmp	oval-vertical.bmp
224.163921118	1.875777960000022	shape	0.631484985352	1.0	0.8	n/a	n/a	226.039699078	226.055631161	227.038040161	n/a	oval-horizontal.bmp	oval-horizontal.bmp	circle.bmp
227.16514802	1.873136996999989	shape	0.976551055908	1.0	0.8	n/a	n/a	229.038285017	229.054949999	230.037436962	n/a	oval-horizontal.bmp	oval-vertical.bmp	oval-vertical.bmp
230.167811155	1.866998910999996	shape	0.786884069443	1.0	0.8	n/a	n/a	232.034810066	232.050847054	233.034316063	n/a	oval-horizontal.bmp	circle.bmp	circle.bmp
233.169157982	1.8671920300000124	shape	1.23825502396	1.0	0.8	n/a	n/a	235.036350012	235.052628994	236.036508083	n/a	oval-horizontal.bmp	oval-horizontal.bmp	oval-vertical.bmp
236.170593023	1.865927935000002	shape	1.16716599464	1.0	0.8	n/a	n/a	238.036520958	238.052487135	239.0348351	n/a	circle.bmp	circle.bmp	oval-vertical.bmp
242.118447065	1.915147066000003	face	1.40204596519	1.0	0.8	239.131587982	242.034163952	244.033594131	244.050378084	245.03344512	n/a	20M_FE_O.jpg	21M_FE_O.jpg	21M_FE_O.jpg
245.207860947	1.8265352249999864	face	1.34516406059	1.0	0.8	n/a	n/a	247.034396172	247.049599171	248.033643961	n/a	07F_AN_O.jpg	07F_AN_O.jpg	01F_AN_O.jpg
248.176764965	1.87197113000002	face	1.15891718864	1.0	0.8	n/a	n/a	250.048736095	250.065236092	251.033295155	n/a	FFZ_102.jpg	FFZ_102.jpg	FFX_139.jpg
251.200513124	1.8439638620000096	face	0.937835931778	1.0	0.8	n/a	n/a	253.044476986	253.061745167	254.046720982	n/a	22M_AN_O.jpg	23M_AN_O.jpg	23M_AN_O.jpg
254.196200132	1.8533768660000192	face	0.635783910751	1.0	0.8	n/a	n/a	256.049576998	256.06342411	257.04947114	n/a	MAX_233.jpg	MAZ_146.jpg	MAZ_146.jpg
257.213881969	1.833007097999996	face	0.753368139267	1.0	0.8	n/a	n/a	259.046889067	259.06351614	260.045884132	n/a	15F_FE_O.jpg	15F_FE_O.jpg	16F_FE_O.jpg
263.095328093	1.9495260710000368	shape	1.20268702507	1.0	0.8	260.145565987	263.044929981	265.044854164	265.061208963	266.043355942	n/a	oval-horizontal.bmp	oval-horizontal.bmp	oval-vertical.bmp
266.179028988	1.8641841409999529	shape	0.518766880035	1.0	0.8	n/a	n/a	268.043213129	268.060225964	269.042937994	n/a	oval-horizontal.bmp	oval-vertical.bmp	oval-vertical.bmp
269.177693129	1.8652589320000168	shape	0.758898019791	1.0	0.8	n/a	n/a	271.042952061	271.059044123	272.041524172	n/a	circle.bmp	circle.bmp	oval-vertical.bmp
272.17147994	1.86778307000003	shape	0.833526134491	1.0	0.8	n/a	n/a	274.03926301	274.055845022	275.038424015	n/a	circle.bmp	oval-vertical.bmp	oval-vertical.bmp
275.17336607	1.8676729200000184	shape	1.31838297844	1.0	0.8	n/a	n/a	277.04103899	277.057723999	278.040821075	n/a	oval-horizontal.bmp	circle.bmp	circle.bmp
278.174968004	1.8656771189999968	shape	0.700585126877	1.0	0.8	n/a	n/a	280.040645123	280.05714798	281.039586067	n/a	oval-horizontal.bmp	oval-horizontal.bmp	circle.bmp
284.106362104	1.932163953999975	face	0.935395956039	1.0	0.8	281.146090031	284.038805962	286.038526058	286.054870129	287.037708998	n/a	FFZ_18.jpg	FAZ_129.jpg	FAZ_129.jpg
287.222459078	1.8152658939999924	face	0.958704948425	1.0	0.8	n/a	n/a	289.037724972	289.053339958	290.036131144	n/a	20M_FE_O.jpg	24M_FE_O.jpg	24M_FE_O.jpg
290.187379122	1.8489289280000207	face	0.759161949158	1.0	0.8	n/a	n/a	292.03630805	292.052651167	293.036147118	n/a	FAZ_23.jpg	FAX_25.jpg	FAX_25.jpg
293.215569019	1.817712069000038	face	0.619727134705	1.0	0.8	n/a	n/a	295.033281088	295.049283981	296.032690048	n/a	33M_FE_O.jpg	33M_FE_O.jpg	35M_FE_O.jpg
296.217138052	1.8181579110000143	face	0.671936035156	1.0	0.8	n/a	n/a	298.035295963	298.051989079	299.034531116	n/a	01F_AN_O.jpg	01F_AN_O.jpg	02F_AN_O.jpg
299.187031031	1.8464729780000084	face	1.00565695763	1.0	0.8	n/a	n/a	301.033504009	301.05026412	302.033715963	n/a	MFZ_132.jpg	MFZ_132.jpg	MFZ_120.jpg
305.083590031	1.948908089999975	shape	1.50278997421	0.0	0.8	302.141132116	305.032721043	307.032498121	307.048289061	308.048367977	n/a	oval-horizontal.bmp	oval-vertical.bmp	oval-vertical.bmp
308.18236804	1.86566805800004	shape	1.29400014877	1.0	0.8	n/a	n/a	310.048036098	310.064295053	311.046841145	n/a	circle.bmp	oval-vertical.bmp	oval-vertical.bmp
311.192830086	1.8544609539999897	shape	0.825814962387	1.0	0.8	n/a	n/a	313.04729104	313.063709021	314.046565056	n/a	oval-horizontal.bmp	oval-horizontal.bmp	oval-vertical.bmp
314.181168079	1.863110066000047	shape	0.68631696701	1.0	0.8	n/a	n/a	316.044278145	316.060173035	317.046036959	n/a	oval-horizontal.bmp	oval-horizontal.bmp	circle.bmp
317.180310965	1.865478037999992	shape	0.78665804863	1.0	0.8	n/a	n/a	319.045789003	319.062798023	320.044836998	n/a	circle.bmp	circle.bmp	oval-vertical.bmp
320.179190159	1.8659160140000493	shape	0.635396957397	1.0	0.8	n/a	n/a	322.045106173	322.061424017	323.044103146	n/a	oval-horizontal.bmp	circle.bmp	circle.bmp
326.132296085	1.9108750820000184	face	1.2460000515	1.0	0.8	323.143690109	326.042994022	328.043171167	328.059435129	329.042773962	n/a	17F_FE_O.jpg	18F_FE_O.jpg	18F_FE_O.jpg
329.218189955	1.823462008999968	face	0.575838088989	1.0	0.8	n/a	n/a	331.041651964	331.05874896	332.04124403	n/a	42M_AN_O.jpg	43M_AN_O.jpg	43M_AN_O.jpg
332.21906805	1.822091103000048	face	0.592820167542	1.0	0.8	n/a	n/a	334.041159153	334.057091951	335.040359974	n/a	31M_FE_O.jpg	31M_FE_O.jpg	32M_FE_O.jpg
335.187401056	1.850728989000004	face	0.570008039474	1.0	0.8	n/a	n/a	337.038130045	337.054614067	338.03959012	n/a	FAZ_212.jpg	FFZ_236.jpg	FFZ_236.jpg
338.222283125	1.8176519870000327	face	0.654850006104	1.0	0.8	n/a	n/a	340.039935112	340.056390047	341.039386988	n/a	06F_FE_O.jpg	06F_FE_O.jpg	08F_FE_O.jpg
341.189707994	1.8485810760000163	face	0.718178033829	1.0	0.8	n/a	n/a	343.03828907	343.055149078	344.037480116	n/a	MAZ_128.jpg	MAZ_128.jpg	MAX_39.jpg
347.088188171	1.9484817989999783	shape	0.702673912048	1.0	0.8	344.138913155	347.037018061	349.03666997	349.052523136	350.035807133	n/a	circle.bmp	oval-vertical.bmp	oval-vertical.bmp
350.170576096	1.8654789920000208	shape	0.727629899979	1.0	0.8	n/a	n/a	352.036055088	352.052333117	353.035125017	n/a	oval-horizontal.bmp	oval-horizontal.bmp	circle.bmp
353.16968298	1.8647391789999688	shape	0.72528886795	1.0	0.8	n/a	n/a	355.034422159	355.051033974	356.033681154	n/a	oval-horizontal.bmp	oval-vertical.bmp	oval-vertical.bmp
356.168156147	1.8800117970000088	shape	0.653728961945	0.0	0.8	n/a	n/a	358.048167944	358.065137148	359.033851147	n/a	oval-horizontal.bmp	circle.bmp	circle.bmp
359.166152	1.8671450619999632	shape	0.787436962128	1.0	0.8	n/a	n/a	361.033297062	361.050646067	362.032987118	n/a	oval-horizontal.bmp	oval-horizontal.bmp	oval-vertical.bmp
362.166710138	1.8660538199999903	shape	1.03425002098	1.0	0.8	n/a	n/a	364.032763958	364.048398018	365.031974077	n/a	circle.bmp	circle.bmp	oval-vertical.bmp
368.115784168	1.9311149119999984	face	0.819314002991	1.0	0.8	365.133260012	368.047310114	370.04689908	370.063187122	371.046376944	n/a	FFZ_18.jpg	FAZ_129.jpg	FAZ_129.jpg
371.230417967	1.8158540719999792	face	0.794530153275	1.0	0.8	n/a	n/a	373.046272039	373.062299013	374.046024084	n/a	20M_FE_O.jpg	24M_FE_O.jpg	24M_FE_O.jpg
374.20731616	1.837790966	face	0.541512966156	1.0	0.8	n/a	n/a	376.045107126	376.061269999	377.044682026	n/a	FAZ_23.jpg	FAX_25.jpg	FAX_25.jpg
377.22497797	1.8171751500000253	face	0.586343050003	1.0	0.8	n/a	n/a	379.04215312	379.059395075	380.044424057	n/a	33M_FE_O.jpg	33M_FE_O.jpg	35M_FE_O.jpg
380.227434158	1.816030979000004	face	0.737106084824	1.0	0.8	n/a	n/a	382.043465137	382.060544968	383.042907953	n/a	01F_AN_O.jpg	01F_AN_O.jpg	02F_AN_O.jpg
383.195474148	1.8476588720000109	face	0.651429891586	1.0	0.8	n/a	n/a	385.04313302	385.058864117	386.042670965	394.439769983	MFZ_132.jpg	MFZ_132.jpg	MFZ_120.jpg
