onset	duration	trial_type	response_time	accuracy_binarized	tr_seconds	cueStartTime	cueEndTime	trialEndTime	fixStartTime	fixEndTime	runEndTime	stimLeft	stimTop	stimRight
11.0911989212	1.9517221451	shape	1.08741903305	1.0	0.8	8.03576993942	11.0266931057	13.0429210663	13.0597419739	14.042265892	n/a	oval-horizontal.bmp	oval-horizontal.bmp	oval-vertical.bmp
14.1760079861	1.8665249346999992	shape	1.02031111717	1.0	0.8	n/a	n/a	16.0425329208	16.0584630966	17.0408630371	n/a	oval-horizontal.bmp	oval-vertical.bmp	oval-vertical.bmp
17.1591219902	1.8825900555	shape	0.769424915314	1.0	0.8	n/a	n/a	19.0417120457	19.0572760105	20.0401201248	n/a	circle.bmp	circle.bmp	oval-vertical.bmp
20.1573269367	1.883004188600001	shape	0.686702013016	1.0	0.8	n/a	n/a	22.0403311253	22.0566220284	23.0386209488	n/a	circle.bmp	oval-vertical.bmp	oval-vertical.bmp
23.1566329002	1.882224082999997	shape	0.611999034882	1.0	0.8	n/a	n/a	25.0388569832	25.055989027	26.0381629467	n/a	oval-horizontal.bmp	circle.bmp	circle.bmp
26.1487851143	1.8897910118	shape	1.29345488548	1.0	0.8	n/a	n/a	28.0385761261	28.0544140339	29.0369470119	n/a	oval-horizontal.bmp	oval-horizontal.bmp	circle.bmp
32.1020081043	1.935326814700005	face	1.07259583473	1.0	0.8	29.1132891178	32.0367379189	34.037334919	34.0533130169	35.0363659859	n/a	FAZ_23.jpg	FAZ_23.jpg	FAX_43.jpg
35.1869809628	1.849436044599997	face	0.836416006088	1.0	0.8	n/a	n/a	37.0364170074	37.0525939465	38.035159111	n/a	26M_FE_O.jpg	26M_FE_O.jpg	27M_FE_O.BMP
38.1689939499	1.8657171726	face	0.668508052826	1.0	0.8	n/a	n/a	40.0347111225	40.0515320301	41.0338408947	n/a	MFX_16.jpg	MFZ_50.jpg	MFZ_50.jpg
41.2020730972	1.8311889172000024	face	0.883376836777	1.0	0.8	n/a	n/a	43.0332620144	43.050508976	44.0331039429	n/a	09F_AN_O.jpg	09F_AN_O.jpg	10F_AN_O.jpg
44.1845190525	1.8481938839000025	face	0.653445005417	1.0	0.8	n/a	n/a	46.0327129364	46.0496320724	47.0326631069	n/a	38M_AN_O.BMP	39M_AN_O.jpg	39M_AN_O.jpg
47.1658821106	1.8658199309999968	face	0.992352962494	1.0	0.8	n/a	n/a	49.0317020416	49.0487349033	50.0309789181	n/a	FFZ_102.jpg	FFX_130.jpg	FFX_130.jpg
53.0792479515	1.9517910480999987	shape	0.636905908585	1.0	0.8	50.1112840176	53.0306520462	55.0310389996	55.0477941036	56.0298480988	n/a	oval-horizontal.bmp	oval-vertical.bmp	oval-vertical.bmp
56.147053957	1.8995461464000056	shape	0.51953291893	1.0	0.8	n/a	n/a	58.0466001034	58.0632750988	59.0458819866	n/a	circle.bmp	oval-vertical.bmp	oval-vertical.bmp
59.1628689766	1.882544994299998	shape	0.986700057983	1.0	0.8	n/a	n/a	61.0454139709	61.0618979931	62.0448820591	n/a	oval-horizontal.bmp	oval-horizontal.bmp	oval-vertical.bmp
62.1625900269	1.881550073600004	shape	0.583323001862	1.0	0.8	n/a	n/a	64.0441401005	64.0610780716	65.0436520576	n/a	oval-horizontal.bmp	oval-horizontal.bmp	circle.bmp
65.1616790295	1.881990909500004	shape	0.610520124435	1.0	0.8	n/a	n/a	67.043669939	67.0596280098	68.0429239273	n/a	circle.bmp	circle.bmp	oval-vertical.bmp
68.1538479328	1.888555049899992	shape	0.626340866089	1.0	0.8	n/a	n/a	70.0424029827	70.0594129562	71.0417408943	n/a	oval-horizontal.bmp	circle.bmp	circle.bmp
74.1403200626	1.9007279873000016	face	1.35413718224	1.0	0.8	71.1233201027	74.0393640995	76.0410480499	76.0580689907	77.0400269032	n/a	03F_FE_O.jpg	05F_FE_O.jpg	05F_FE_O.jpg
77.1747369766	1.865694999699997	face	0.985768079758	1.0	0.8	n/a	n/a	79.0404319763	79.0563380718	80.0399239063	n/a	FAZ_32.jpg	FAZ_32.jpg	FAX_45.jpg
80.1738929749	1.8656520842999955	face	1.78571915627	1.0	0.8	n/a	n/a	82.0395450592	82.0560629368	83.0386600494	n/a	MAZ_128.jpg	MAZ_101.jpg	MAZ_101.jpg
83.1895909309	1.8488440514000075	face	0.804819107056	1.0	0.8	n/a	n/a	85.0384349823	85.0548350811	86.037612915	n/a	11F_AN_O.jpg	11F_AN_O.jpg	12F_AN_O.jpg
86.1968491077	1.839918851899995	face	0.579296112061	1.0	0.8	n/a	n/a	88.0367679596	88.0540349483	89.0370109081	n/a	26M_FE_O.jpg	33M_FE_O.jpg	33M_FE_O.jpg
89.1707251072	1.866216898000005	face	0.70801782608	1.0	0.8	n/a	n/a	91.0369420052	91.0526199341	92.036272049	n/a	MFZ_132.jpg	MFZ_132.jpg	MFZ_120.jpg
95.084913969	1.950638055799999	shape	0.556049823761	1.0	0.8	92.1194930077	95.0323090553	97.0355520248	97.0520939827	98.0352780819	n/a	circle.bmp	oval-vertical.bmp	oval-vertical.bmp
98.1522989273	1.8813800806999976	shape	0.569328069687	1.0	0.8	n/a	n/a	100.033679008	100.051072121	101.036565065	n/a	oval-horizontal.bmp	oval-horizontal.bmp	circle.bmp
101.151144981	1.8820300109999977	shape	0.502614021301	1.0	0.8	n/a	n/a	103.033174992	103.04946804	104.032591105	n/a	oval-horizontal.bmp	oval-vertical.bmp	oval-vertical.bmp
104.14991498	1.8817811010000007	shape	0.535737037659	1.0	0.8	n/a	n/a	106.031696081	106.048886061	107.031148911	n/a	oval-horizontal.bmp	circle.bmp	circle.bmp
107.149776936	1.891149997	shape	0.510481834412	1.0	0.8	n/a	n/a	109.040926933	109.074606895	110.030817986	n/a	oval-horizontal.bmp	oval-horizontal.bmp	oval-vertical.bmp
110.147804976	1.899307965999995	shape	0.525881052017	1.0	0.8	n/a	n/a	112.047112942	112.063875914	113.046426058	n/a	circle.bmp	circle.bmp	oval-vertical.bmp
116.111479044	1.934687853	face	0.65398979187	1.0	0.8	113.132505894	116.043129921	118.046166897	118.06144309	119.04461503	n/a	FAZ_23.jpg	FAZ_23.jpg	FAX_43.jpg
119.195933104	1.8481318949999943	face	0.669285058975	1.0	0.8	n/a	n/a	121.044064999	121.061387062	122.043518066	n/a	26M_FE_O.jpg	26M_FE_O.jpg	27M_FE_O.BMP
122.177977085	1.8657279020000035	face	0.586125850677	1.0	0.8	n/a	n/a	124.043704987	124.060267925	125.043148041	n/a	MFZ_50.jpg	MFZ_50.jpg	MFX_16.jpg
125.199022055	1.8437318799999929	face	0.946891069412	1.0	0.8	n/a	n/a	127.042753935	127.059139967	128.042201042	n/a	10F_AN_O.jpg	09F_AN_O.jpg	09F_AN_O.jpg
128.193644047	1.8478090760000043	face	0.593595981598	1.0	0.8	n/a	n/a	130.041453123	130.057708979	131.041234016	n/a	38M_AN_O.BMP	39M_AN_O.jpg	39M_AN_O.jpg
131.175424099	1.8650398249999969	face	0.92583990097	1.0	0.8	n/a	n/a	133.040463924	133.057209015	134.0403409	n/a	FFZ_102.jpg	FFX_130.jpg	FFX_130.jpg
137.08878994	1.950077057000016	shape	0.771457910538	1.0	0.8	134.128072023	137.040077925	139.038866997	139.056010008	140.038985968	n/a	oval-horizontal.bmp	oval-horizontal.bmp	oval-vertical.bmp
140.156265974	1.8827779289999853	shape	0.470534801483	1.0	0.8	n/a	n/a	142.039043903	142.054631948	143.038177967	n/a	oval-horizontal.bmp	oval-vertical.bmp	oval-vertical.bmp
143.155725002	1.881792069	shape	0.471125841141	1.0	0.8	n/a	n/a	145.037517071	145.053860903	146.036436081	n/a	circle.bmp	circle.bmp	oval-vertical.bmp
146.154506922	1.8820991510000056	shape	0.636457920074	1.0	0.8	n/a	n/a	148.036606073	148.053333998	149.035353899	n/a	circle.bmp	oval-vertical.bmp	oval-vertical.bmp
149.153599024	1.8823668950000183	shape	0.561532974243	1.0	0.8	n/a	n/a	151.035965919	151.051840067	152.035327911	n/a	oval-horizontal.bmp	circle.bmp	circle.bmp
152.152993917	1.882075071999992	shape	0.739114046097	1.0	0.8	n/a	n/a	154.035068989	154.051753998	155.034440994	n/a	oval-horizontal.bmp	oval-horizontal.bmp	circle.bmp
158.116072893	1.9167971610000047	face	1.32065391541	1.0	0.8	155.12044096	158.032958031	160.032870054	160.049993038	161.035896063	n/a	20M_FE_O.jpg	21M_FE_O.jpg	21M_FE_O.jpg
161.200632095	1.831203937999988	face	0.915072917938	1.0	0.8	n/a	n/a	163.031836033	163.049087048	164.032027006	n/a	01F_AN_O.jpg	07F_AN_O.jpg	07F_AN_O.jpg
164.184195995	1.8472299579999856	face	0.736113786697	1.0	0.8	n/a	n/a	166.031425953	166.048224926	167.030745983	n/a	FFX_139.jpg	FFZ_102.jpg	FFZ_102.jpg
167.187820911	1.842994214000015	face	0.979681968689	1.0	0.8	n/a	n/a	169.030815125	169.047511101	170.030081034	n/a	23M_AN_O.jpg	23M_AN_O.jpg	22M_AN_O.jpg
170.163784981	1.882853030999996	face	0.59489107132	1.0	0.8	n/a	n/a	172.046638012	172.062467098	173.045668125	n/a	MAZ_146.jpg	MAZ_146.jpg	MAX_233.jpg
173.207421064	1.8378658299999984	face	0.859193086624	1.0	0.8	n/a	n/a	175.045286894	175.062232018	176.044831038	n/a	15F_FE_O.jpg	15F_FE_O.jpg	16F_FE_O.jpg
179.093144894	1.9515061369999955	shape	0.804172992706	1.0	0.8	176.135083914	179.04429698	181.044651031	181.061280012	182.043307066	n/a	oval-horizontal.bmp	oval-vertical.bmp	oval-vertical.bmp
182.160414934	1.883054972000025	shape	0.501297950745	1.0	0.8	n/a	n/a	184.043469906	184.059818029	185.042714119	n/a	circle.bmp	oval-vertical.bmp	oval-vertical.bmp
185.160181999	1.8817939760000115	shape	0.768930912018	1.0	0.8	n/a	n/a	187.041975975	187.058810949	188.04065609	n/a	oval-horizontal.bmp	oval-horizontal.bmp	oval-vertical.bmp
188.165649891	1.87521815300002	shape	0.54697394371	1.0	0.8	n/a	n/a	190.040868044	190.057399035	191.040075064	n/a	oval-horizontal.bmp	oval-horizontal.bmp	circle.bmp
191.167151928	1.8755230900000013	shape	0.511329174042	1.0	0.8	n/a	n/a	193.042675018	193.056778908	194.039633036	n/a	circle.bmp	circle.bmp	oval-vertical.bmp
194.168270111	1.870939015999994	shape	0.458617925644	1.0	0.8	n/a	n/a	196.039209127	196.055912971	197.034861088	n/a	oval-horizontal.bmp	circle.bmp	circle.bmp
200.104140997	1.934120893	face	0.969737052917	1.0	0.8	197.124612093	200.038670063	202.03826189	202.054574966	203.037326097	n/a	FFX_54.jpg	FFX_54.jpg	FAX_51.jpg
203.221415043	1.8162260050000043	face	0.622648954391	1.0	0.8	n/a	n/a	205.037641048	205.053325891	206.035789013	n/a	40M_FE_O.BMP	41M_FE_O.jpg	41M_FE_O.jpg
206.204078913	1.8321239950000177	face	0.601924180984	1.0	0.8	n/a	n/a	208.036202908	208.052278996	209.034811974	n/a	29M_AN_O.jpg	29M_AN_O.jpg	28M_AN_O.jpg
209.17572403	1.859318970999993	face	0.596574068069	1.0	0.8	n/a	n/a	211.035043001	211.051682949	212.034531116	n/a	FFZ_18.jpg	FFZ_29.jpg	FFZ_29.jpg
212.202076912	1.8322281840000016	face	0.826188087463	1.0	0.8	n/a	n/a	214.034305096	214.050266981	215.032665014	n/a	19F_AN_O.jpg	19F_AN_O.jpg	09F_AN_O.jpg
215.179558992	1.866189002999988	face	0.622437000275	1.0	0.8	n/a	n/a	217.045747995	217.062757969	218.046001911	n/a	MFZ_132.jpg	MFZ_7.jpg	MFZ_7.jpg
221.081641912	1.9500470170000028	shape	0.553606033325	1.0	0.8	218.136300087	221.032746077	223.031688929	223.048742056	224.031241894	n/a	circle.bmp	oval-vertical.bmp	oval-vertical.bmp
224.164876938	1.865424156000017	shape	0.620012044907	1.0	0.8	n/a	n/a	226.030301094	226.047022104	227.029839039	n/a	oval-horizontal.bmp	oval-horizontal.bmp	circle.bmp
227.164215088	1.881821871	shape	0.470390081406	1.0	0.8	n/a	n/a	229.046036959	229.062552929	230.045311928	n/a	oval-horizontal.bmp	oval-vertical.bmp	oval-vertical.bmp
230.169323921	1.876610040999992	shape	0.478937149048	1.0	0.8	n/a	n/a	232.045933962	232.062186003	233.044728994	n/a	oval-horizontal.bmp	circle.bmp	circle.bmp
233.170944929	1.8740429879999847	shape	0.477019071579	1.0	0.8	n/a	n/a	235.044987917	235.061221123	236.044193983	n/a	oval-horizontal.bmp	oval-horizontal.bmp	oval-vertical.bmp
236.173361063	1.8699970250000035	shape	0.491510868073	1.0	0.8	n/a	n/a	238.043358088	238.060379982	239.040194988	n/a	circle.bmp	circle.bmp	oval-vertical.bmp
242.12588501	1.9168639180000184	face	1.15289402008	1.0	0.8	239.133918047	242.042854071	244.042748928	244.059068918	245.041739941	n/a	20M_FE_O.jpg	21M_FE_O.jpg	21M_FE_O.jpg
245.208456039	1.833108901999992	face	0.636739015579	1.0	0.8	n/a	n/a	247.041564941	247.058005095	248.040473938	n/a	07F_AN_O.jpg	07F_AN_O.jpg	01F_AN_O.jpg
248.191047907	1.849179982999999	face	0.669411897659	1.0	0.8	n/a	n/a	250.04022789	250.057080984	251.038975	n/a	FFZ_102.jpg	FFZ_102.jpg	FFX_139.jpg
251.206845045	1.8257548809999944	face	0.893106937408	1.0	0.8	n/a	n/a	253.032599926	253.047239065	254.030894041	n/a	22M_AN_O.jpg	23M_AN_O.jpg	23M_AN_O.jpg
254.181916952	1.8584740160000024	face	0.544054031372	1.0	0.8	n/a	n/a	256.040390968	256.05679512	257.039885044	n/a	MAX_233.jpg	MAZ_146.jpg	MAZ_146.jpg
257.205362082	1.8287370200000053	face	0.657730102539	1.0	0.8	n/a	n/a	259.034099102	259.050278902	260.033343077	n/a	15F_FE_O.jpg	15F_FE_O.jpg	16F_FE_O.jpg
263.087464094	1.9489359860000377	shape	0.83661198616	1.0	0.8	260.131792068	263.035928965	265.03640008	265.052239895	266.035943985	n/a	oval-horizontal.bmp	oval-horizontal.bmp	oval-vertical.bmp
266.169362068	1.8662769800000087	shape	0.536129951477	1.0	0.8	n/a	n/a	268.035639048	268.051378965	269.034286976	n/a	oval-horizontal.bmp	oval-vertical.bmp	oval-vertical.bmp
269.168437004	1.865942001000008	shape	0.467346906662	1.0	0.8	n/a	n/a	271.034379005	271.050730944	272.03341794	n/a	circle.bmp	circle.bmp	oval-vertical.bmp
272.168061972	1.8645620340000164	shape	0.602665901184	1.0	0.8	n/a	n/a	274.032624006	274.049911022	275.032217979	n/a	circle.bmp	oval-vertical.bmp	oval-vertical.bmp
275.167670012	1.8647859090000336	shape	0.526926994324	1.0	0.8	n/a	n/a	277.032455921	277.048396111	278.03184104	n/a	oval-horizontal.bmp	circle.bmp	circle.bmp
278.165920019	1.8781459329999848	shape	0.686533927917	1.0	0.8	n/a	n/a	280.044065952	280.061108112	281.045051098	n/a	oval-horizontal.bmp	oval-horizontal.bmp	circle.bmp
284.096940041	1.933131933000027	face	0.603306055069	1.0	0.8	281.147138119	284.030385017	286.030071974	286.046674967	287.046435118	n/a	FFZ_18.jpg	FAZ_129.jpg	FAZ_129.jpg
287.230655909	1.8143730159999905	face	0.637432098389	1.0	0.8	n/a	n/a	289.045028925	289.062454939	290.045058012	n/a	20M_FE_O.jpg	24M_FE_O.jpg	24M_FE_O.jpg
290.20025897	1.84472608599998	face	0.581591844559	1.0	0.8	n/a	n/a	292.044985056	292.060653925	293.044327021	n/a	FAZ_23.jpg	FAX_25.jpg	FAX_25.jpg
293.228411913	1.8156139849999704	face	0.726680994034	1.0	0.8	n/a	n/a	295.044025898	295.060693979	296.04263711	n/a	33M_FE_O.jpg	33M_FE_O.jpg	35M_FE_O.jpg
296.227983952	1.815130949000036	face	0.875962972641	1.0	0.8	n/a	n/a	298.043114901	298.059503078	299.042246103	n/a	01F_AN_O.jpg	01F_AN_O.jpg	02F_AN_O.jpg
299.207425117	1.83148694099998	face	0.691285133362	1.0	0.8	n/a	n/a	301.038912058	301.05557394	302.038484097	n/a	MFZ_132.jpg	MFZ_132.jpg	MFZ_120.jpg
305.091413021	1.949945926999988	shape	0.569860935211	1.0	0.8	302.141830921	305.041179895	307.041358948	307.057653904	308.040232897	n/a	oval-horizontal.bmp	oval-vertical.bmp	oval-vertical.bmp
308.174850941	1.8647921080000167	shape	0.619246006012	1.0	0.8	n/a	n/a	310.039643049	310.056157112	311.039130926	n/a	circle.bmp	oval-vertical.bmp	oval-vertical.bmp
311.173274994	1.865333080000028	shape	0.717125892639	1.0	0.8	n/a	n/a	313.038608074	313.054640055	314.038125038	n/a	oval-horizontal.bmp	oval-horizontal.bmp	oval-vertical.bmp
314.179523945	1.8582811349999704	shape	0.445530891418	1.0	0.8	n/a	n/a	316.03780508	316.054826975	317.037123919	n/a	oval-horizontal.bmp	oval-horizontal.bmp	circle.bmp
317.171631098	1.8648378850000429	shape	0.526695013046	1.0	0.8	n/a	n/a	319.036468983	319.053579092	320.035542011	n/a	circle.bmp	circle.bmp	oval-vertical.bmp
320.165688992	1.8671650879999788	shape	0.554398059845	1.0	0.8	n/a	n/a	322.03285408	322.049529076	323.033412933	n/a	oval-horizontal.bmp	circle.bmp	circle.bmp
326.135726929	1.899289130999989	face	1.08684301376	1.0	0.8	323.132251978	326.035376072	328.03501606	328.051876068	329.033919096	n/a	17F_FE_O.jpg	18F_FE_O.jpg	18F_FE_O.jpg
329.217828989	1.8156459329999848	face	0.600025892258	1.0	0.8	n/a	n/a	331.033474922	331.049627066	332.032176018	n/a	42M_AN_O.jpg	43M_AN_O.jpg	43M_AN_O.jpg
332.216834068	1.815521955999997	face	0.702597141266	1.0	0.8	n/a	n/a	334.032356024	334.049520969	335.031877995	n/a	31M_FE_O.jpg	31M_FE_O.jpg	32M_FE_O.jpg
335.182476044	1.8491470810000123	face	0.82807302475	1.0	0.8	n/a	n/a	337.031623125	337.048213959	338.03127408	n/a	FAZ_212.jpg	FFZ_236.jpg	FFZ_236.jpg
338.208712101	1.822053908999976	face	0.677029848099	1.0	0.8	n/a	n/a	340.03076601	340.047568083	341.032452106	n/a	06F_FE_O.jpg	06F_FE_O.jpg	08F_FE_O.jpg
341.181376934	1.8627250199999708	face	0.67054104805	1.0	0.8	n/a	n/a	343.044101954	343.059847116	344.043153048	n/a	MAZ_128.jpg	MAZ_128.jpg	MAX_39.jpg
347.096947908	1.948473215999968	shape	0.537342071533	1.0	0.8	344.146085024	347.045238972	349.045421124	349.061355114	350.044635057	n/a	circle.bmp	oval-vertical.bmp	oval-vertical.bmp
350.178632021	1.865864992000013	shape	0.650615930557	1.0	0.8	n/a	n/a	352.044497013	352.060269117	353.042781115	n/a	oval-horizontal.bmp	oval-horizontal.bmp	circle.bmp
353.177037954	1.865915059999964	shape	0.51911687851	1.0	0.8	n/a	n/a	355.042953014	355.059938908	356.042395115	n/a	oval-horizontal.bmp	oval-vertical.bmp	oval-vertical.bmp
356.176069975	1.866016148999961	shape	0.544583797455	1.0	0.8	n/a	n/a	358.042086124	358.058115005	359.04082799	n/a	oval-horizontal.bmp	circle.bmp	circle.bmp
359.176100016	1.8649458879999656	shape	0.725823163986	1.0	0.8	n/a	n/a	361.041045904	361.057151079	362.040601969	n/a	oval-horizontal.bmp	oval-horizontal.bmp	oval-vertical.bmp
362.175101995	1.86181807600002	shape	0.653503894806	1.0	0.8	n/a	n/a	364.036920071	364.054421902	365.038055897	n/a	circle.bmp	circle.bmp	oval-vertical.bmp
368.107178926	1.93205618899998	face	0.669069051743	1.0	0.8	365.141784906	368.039433956	370.039235115	370.056194067	371.038181067	n/a	FFZ_18.jpg	FAZ_129.jpg	FAZ_129.jpg
371.222894907	1.8146500589999728	face	1.13611197472	1.0	0.8	n/a	n/a	373.037544966	373.053575993	374.036945105	n/a	20M_FE_O.jpg	24M_FE_O.jpg	24M_FE_O.jpg
374.187474012	1.8494770529999869	face	0.636842012405	1.0	0.8	n/a	n/a	376.036951065	376.05310607	377.036251068	n/a	FAZ_23.jpg	FAX_25.jpg	FAX_25.jpg
377.211611032	1.8248538980000149	face	0.611747980118	1.0	0.8	n/a	n/a	379.03646493	379.052570105	380.035185099	n/a	33M_FE_O.jpg	33M_FE_O.jpg	35M_FE_O.jpg
380.219129086	1.8160710330000145	face	0.675694942474	1.0	0.8	n/a	n/a	382.035200119	382.051259041	383.035023928	n/a	01F_AN_O.jpg	01F_AN_O.jpg	02F_AN_O.jpg
383.18565011	1.84579682399999	face	0.617155075073	1.0	0.8	n/a	n/a	385.031446934	385.048711061	386.032325983	394.430824995	MFZ_132.jpg	MFZ_132.jpg	MFZ_120.jpg
