onset	duration	trial_type	response_time	accuracy_binarized	tr_seconds	cueStartTime	cueEndTime	trialEndTime	fixStartTime	fixEndTime	runEndTime	stimLeft	stimTop	stimRight
11.0572998524	1.9698331356	shape	1.06992793083	1.0	0.8	8.02269101143	11.0100739002	13.027132988	13.0317158699	14.0249810219	n/a	oval-horizontal.bmp	oval-horizontal.bmp	oval-vertical.bmp
14.1428689957	1.882786989199997	shape	1.13658499718	1.0	0.8	n/a	n/a	16.0256559849	16.0293190479	17.0251789093	n/a	oval-horizontal.bmp	oval-vertical.bmp	oval-vertical.bmp
17.1232368946	1.9023840427	shape	1.16962814331	1.0	0.8	n/a	n/a	19.0256209373	19.0292458534	20.0252370834	n/a	circle.bmp	circle.bmp	oval-vertical.bmp
20.1225879192	1.9026689529999992	shape	0.836710929871	1.0	0.8	n/a	n/a	22.0252568722	22.0288610458	23.0248639584	n/a	circle.bmp	oval-vertical.bmp	oval-vertical.bmp
23.122907877	1.902055978700001	shape	1.00262403488	1.0	0.8	n/a	n/a	25.0249638557	25.0286068916	26.0245358944	n/a	oval-horizontal.bmp	circle.bmp	circle.bmp
26.1245009899	1.8999149799	shape	0.803031921387	1.0	0.8	n/a	n/a	28.0244159698	28.0282950401	29.0242228508	n/a	oval-horizontal.bmp	oval-horizontal.bmp	circle.bmp
32.0908749104	1.9328570365000035	face	1.15262007713	1.0	0.8	29.0985238552	32.0238828659	34.0237319469	34.0282859802	35.0233960152	n/a	FAZ_23.jpg	FAZ_23.jpg	FAX_43.jpg
35.1654410362	1.858000040100002	face	0.814887046814	1.0	0.8	n/a	n/a	37.0234410763	37.0270540714	38.0228838921	n/a	26M_FE_O.jpg	26M_FE_O.jpg	27M_FE_O.BMP
38.1463830471	1.8768880366999952	face	0.853299856186	1.0	0.8	n/a	n/a	40.0232710838	40.0270440578	41.0223810673	n/a	MFX_16.jpg	MFZ_50.jpg	MFZ_50.jpg
41.1750450134	1.848755836499997	face	1.48550200462	1.0	0.8	n/a	n/a	43.0238008499	43.0274529457	44.0222609043	n/a	09F_AN_O.jpg	09F_AN_O.jpg	10F_AN_O.jpg
44.1559648514	1.8600251673999963	face	1.24368309975	1.0	0.8	n/a	n/a	46.0159900188	46.0196869373	47.0151178837	n/a	38M_AN_O.BMP	39M_AN_O.jpg	39M_AN_O.jpg
47.1413149834	1.8815360069	face	1.41978907585	1.0	0.8	n/a	n/a	49.0228509903	49.0265469551	50.0217649937	n/a	FFZ_102.jpg	FFX_130.jpg	FFX_130.jpg
53.0599029064	1.9618360995999995	shape	0.820941209793	1.0	0.8	50.0974919796	53.0217330456	55.021739006	55.0266010761	56.0214579105	n/a	oval-horizontal.bmp	oval-vertical.bmp	oval-vertical.bmp
56.1217579842	1.8998820780999992	shape	0.80341386795	1.0	0.8	n/a	n/a	58.0216400623	58.0252969265	59.0208170414	n/a	circle.bmp	oval-vertical.bmp	oval-vertical.bmp
59.1226859093	1.8985669612999985	shape	0.920803070068	0.0	0.8	n/a	n/a	61.0212528706	61.0249829292	62.0202109814	n/a	oval-horizontal.bmp	oval-horizontal.bmp	oval-vertical.bmp
62.1200158596	1.9002962112000008	shape	0.912002086639	1.0	0.8	n/a	n/a	64.0203120708	64.0242729187	65.0202639103	n/a	oval-horizontal.bmp	oval-horizontal.bmp	circle.bmp
65.1216769218	1.8992159367000028	shape	1.16970086098	1.0	0.8	n/a	n/a	67.0208928585	67.0246360302	68.0197398663	n/a	circle.bmp	circle.bmp	oval-vertical.bmp
68.1231398582	1.8969430923999937	shape	0.919872045517	1.0	0.8	n/a	n/a	70.0200829506	70.0237159729	71.0194439888	n/a	oval-horizontal.bmp	circle.bmp	circle.bmp
74.1079719067	1.912175178499993	face	1.02047610283	1.0	0.8	71.0951700211	74.0190238953	76.0201470852	76.0251939297	77.0187568665	n/a	03F_FE_O.jpg	05F_FE_O.jpg	05F_FE_O.jpg
77.1414730549	1.877676963799999	face	1.38710594177	1.0	0.8	n/a	n/a	79.0191500187	79.0227589607	80.0183439255	n/a	FAZ_32.jpg	FAZ_32.jpg	FAX_45.jpg
80.1378960609	1.8810389041999969	face	1.75313591957	1.0	0.8	n/a	n/a	82.0189349651	82.0228660107	83.0181930065	n/a	MAZ_128.jpg	MAZ_101.jpg	MAZ_101.jpg
83.1690609455	1.8605301380000008	face	1.32015609741	1.0	0.8	n/a	n/a	85.0295910835	85.033176899	86.0177969933	n/a	11F_AN_O.jpg	11F_AN_O.jpg	12F_AN_O.jpg
86.1653208733	1.8530051707999888	face	0.875687837601	1.0	0.8	n/a	n/a	88.0183260441	88.0222868919	89.0173828602	n/a	26M_FE_O.jpg	33M_FE_O.jpg	33M_FE_O.jpg
89.1439208984	1.8737320900000043	face	1.10845398903	1.0	0.8	n/a	n/a	91.0176529884	91.0212929249	92.0165889263	n/a	MFZ_132.jpg	MFZ_132.jpg	MFZ_120.jpg
95.0543589592	1.962873935700003	shape	0.785638809204	1.0	0.8	92.0962569714	95.016782999	97.0172328949	97.0217590332	98.016824007	n/a	circle.bmp	oval-vertical.bmp	oval-vertical.bmp
98.1187319756	1.8984410764000048	shape	0.741118907928	1.0	0.8	n/a	n/a	100.017173052	100.021291018	101.015864849	n/a	oval-horizontal.bmp	oval-horizontal.bmp	circle.bmp
101.117398977	1.8994519710000048	shape	0.707596063614	1.0	0.8	n/a	n/a	103.016850948	103.020488024	104.015567064	n/a	oval-horizontal.bmp	oval-vertical.bmp	oval-vertical.bmp
104.124986887	1.8908650869999943	shape	0.77420592308	1.0	0.8	n/a	n/a	106.015851974	106.019543886	107.015985966	n/a	oval-horizontal.bmp	circle.bmp	circle.bmp
107.118501902	1.8970060340000003	shape	1.17318820953	1.0	0.8	n/a	n/a	109.015507936	109.019384861	110.014369965	n/a	oval-horizontal.bmp	oval-horizontal.bmp	oval-vertical.bmp
110.119194984	1.8965389729999915	shape	0.807029008865	1.0	0.8	n/a	n/a	112.015733957	112.020107985	113.014533043	n/a	circle.bmp	circle.bmp	oval-vertical.bmp
116.070422888	1.9447720050000044	face	0.836311817169	1.0	0.8	113.094300985	116.013813972	118.015194893	118.019814968	119.014000893	n/a	FAZ_23.jpg	FAZ_23.jpg	FAX_43.jpg
119.148356915	1.866481065000002	face	1.02159500122	1.0	0.8	n/a	n/a	121.01483798	121.018621922	122.014086008	n/a	26M_FE_O.jpg	26M_FE_O.jpg	27M_FE_O.BMP
122.139708042	1.873733044000005	face	1.23779296875	1.0	0.8	n/a	n/a	124.013441086	124.016855955	125.013133049	n/a	MFZ_50.jpg	MFZ_50.jpg	MFX_16.jpg
125.163408041	1.8507778640000083	face	n/a	0.0	0.8	n/a	n/a	127.014185905	127.017822027	128.013345957	n/a	10F_AN_O.jpg	09F_AN_O.jpg	09F_AN_O.jpg
128.14712286	1.8664650919999983	face	1.0549390316	1.0	0.8	n/a	n/a	130.013587952	130.017237902	131.012665987	n/a	38M_AN_O.BMP	39M_AN_O.jpg	39M_AN_O.jpg
131.137820959	1.8756380079999813	face	1.15484213829	1.0	0.8	n/a	n/a	133.013458967	133.016906023	134.012891054	n/a	FFZ_102.jpg	FFX_130.jpg	FFX_130.jpg
137.065984964	1.9626491070000045	shape	0.970835924149	1.0	0.8	134.096521854	137.028962851	139.028634071	139.033163071	140.027788877	n/a	oval-horizontal.bmp	oval-horizontal.bmp	oval-vertical.bmp
140.134952068	1.893368960000004	shape	0.617476940155	1.0	0.8	n/a	n/a	142.028321028	142.031959057	143.027622938	n/a	oval-horizontal.bmp	oval-vertical.bmp	oval-vertical.bmp
143.132050037	1.8960928920000129	shape	0.750218153	1.0	0.8	n/a	n/a	145.028142929	145.031699896	146.027968884	n/a	circle.bmp	circle.bmp	oval-vertical.bmp
146.134908915	1.8935899729999903	shape	0.604074954987	1.0	0.8	n/a	n/a	148.028498888	148.032562017	149.02661705	n/a	circle.bmp	oval-vertical.bmp	oval-vertical.bmp
149.133663893	1.893432139999988	shape	0.820388793945	1.0	0.8	n/a	n/a	151.027096033	151.030722857	152.026527882	n/a	oval-horizontal.bmp	circle.bmp	circle.bmp
152.131980896	1.8946599960000008	shape	1.2050139904	1.0	0.8	n/a	n/a	154.026640892	154.030305862	155.026701927	n/a	oval-horizontal.bmp	oval-horizontal.bmp	circle.bmp
158.111608028	1.9148929119999991	face	1.38672804832	0.0	0.8	155.11067605	158.026311874	160.02650094	160.031302929	161.026449919	n/a	20M_FE_O.jpg	21M_FE_O.jpg	21M_FE_O.jpg
161.179832935	1.84657692899998	face	1.07073402405	1.0	0.8	n/a	n/a	163.026409864	163.030081987	164.025366068	n/a	01F_AN_O.jpg	07F_AN_O.jpg	07F_AN_O.jpg
164.150910854	1.8754310610000005	face	1.21924805641	1.0	0.8	n/a	n/a	166.026341915	166.029978991	167.026040077	n/a	FFX_139.jpg	FFZ_102.jpg	FFZ_102.jpg
167.181128025	1.8448648450000176	face	1.13592886925	1.0	0.8	n/a	n/a	169.02599287	169.029445887	170.02499795	n/a	23M_AN_O.jpg	23M_AN_O.jpg	22M_AN_O.jpg
170.155715942	1.8689029219999893	face	1.11937117577	1.0	0.8	n/a	n/a	172.024618864	172.028480053	173.025029898	n/a	MAZ_146.jpg	MAZ_146.jpg	MAX_233.jpg
173.174476862	1.8506162169999807	face	1.56901717186	1.0	0.8	n/a	n/a	175.025093079	175.028769016	176.023268938	n/a	15F_FE_O.jpg	15F_FE_O.jpg	16F_FE_O.jpg
179.063211918	1.9615521430000056	shape	0.787523031235	1.0	0.8	176.112578869	179.024136066	181.024764061	181.029629946	182.023364067	n/a	oval-horizontal.bmp	oval-vertical.bmp	oval-vertical.bmp
182.133337975	1.8906230919999985	shape	0.68385887146	1.0	0.8	n/a	n/a	184.023961067	184.027999878	185.023411036	n/a	circle.bmp	oval-vertical.bmp	oval-vertical.bmp
185.134330034	1.8897910120000176	shape	1.18206906319	1.0	0.8	n/a	n/a	187.024121046	187.027807951	188.022233009	n/a	oval-horizontal.bmp	oval-horizontal.bmp	oval-vertical.bmp
188.131731987	1.8914680480000072	shape	0.769261837006	1.0	0.8	n/a	n/a	190.023200035	190.026818991	191.022484064	n/a	oval-horizontal.bmp	oval-horizontal.bmp	circle.bmp
191.13231802	1.89094090399999	shape	0.948688030243	1.0	0.8	n/a	n/a	193.023258924	193.026865959	194.022300959	n/a	circle.bmp	circle.bmp	oval-vertical.bmp
194.130872965	1.891736030000004	shape	0.712725877762	1.0	0.8	n/a	n/a	196.022608995	196.026417971	197.022346973	n/a	oval-horizontal.bmp	circle.bmp	circle.bmp
200.077508926	1.9450840949999983	face	1.15423607826	1.0	0.8	197.108017921	200.020699978	202.022593021	202.027143002	203.02184701	n/a	FFX_54.jpg	FFX_54.jpg	FAX_51.jpg
203.164633036	1.857638836000007	face	1.04760289192	1.0	0.8	n/a	n/a	205.022271872	205.025868893	206.021456003	n/a	40M_FE_O.BMP	41M_FE_O.jpg	41M_FE_O.jpg
206.175051928	1.846271991000009	face	0.871026039124	1.0	0.8	n/a	n/a	208.021323919	208.02541399	209.020582914	n/a	29M_AN_O.jpg	29M_AN_O.jpg	28M_AN_O.jpg
209.155771017	1.8651950359999887	face	0.71665096283	1.0	0.8	n/a	n/a	211.020966053	211.024968863	212.019865036	n/a	FFZ_18.jpg	FFZ_29.jpg	FFZ_29.jpg
212.179144859	1.8417701719999968	face	1.21298503876	1.0	0.8	n/a	n/a	214.020915031	214.024544001	215.01999402	n/a	19F_AN_O.jpg	19F_AN_O.jpg	09F_AN_O.jpg
215.148416996	1.8721718789999784	face	0.929329156876	1.0	0.8	n/a	n/a	217.020588875	217.024463892	218.020173073	n/a	MFZ_132.jpg	MFZ_7.jpg	MFZ_7.jpg
221.057723045	1.961822033000004	shape	0.787031888962	1.0	0.8	218.111902952	221.019623995	223.019545078	223.024296999	224.019057035	n/a	circle.bmp	oval-vertical.bmp	oval-vertical.bmp
224.130694866	1.888356208999994	shape	0.679057836533	1.0	0.8	n/a	n/a	226.019051075	226.02295804	227.01855588	n/a	oval-horizontal.bmp	oval-horizontal.bmp	circle.bmp
227.131851912	1.886971950000003	shape	0.795463085175	1.0	0.8	n/a	n/a	229.018823862	229.022794008	230.018321037	n/a	oval-horizontal.bmp	oval-vertical.bmp	oval-vertical.bmp
230.133877993	1.884691000000004	shape	0.961756944656	1.0	0.8	n/a	n/a	232.018568993	232.02252388	233.017893076	n/a	oval-horizontal.bmp	circle.bmp	circle.bmp
233.134088039	1.8832778929999847	shape	1.0270819664	1.0	0.8	n/a	n/a	235.017365932	235.021054029	236.017762899	n/a	oval-horizontal.bmp	oval-horizontal.bmp	oval-vertical.bmp
236.1332829	1.88468718499999	shape	0.878567934036	1.0	0.8	n/a	n/a	238.017970085	238.021857023	239.016967058	n/a	circle.bmp	circle.bmp	oval-vertical.bmp
242.092916012	1.9243278499999967	face	0.97718501091	1.0	0.8	239.10935998	242.016919851	244.017243862	244.022032022	245.016757011	n/a	20M_FE_O.jpg	21M_FE_O.jpg	21M_FE_O.jpg
245.173985958	1.8436191079999844	face	1.28660798073	1.0	0.8	n/a	n/a	247.017605066	247.021295071	248.016459942	n/a	07F_AN_O.jpg	07F_AN_O.jpg	01F_AN_O.jpg
248.152150869	1.864406109000015	face	1.07050514221	1.0	0.8	n/a	n/a	250.016556978	250.020250082	251.015908957	n/a	FFZ_102.jpg	FFZ_102.jpg	FFX_139.jpg
251.172878981	1.8436200620000136	face	n/a	0.0	0.8	n/a	n/a	253.016499043	253.020533085	254.016067982	n/a	22M_AN_O.jpg	23M_AN_O.jpg	23M_AN_O.jpg
254.151185989	1.8648169040000084	face	0.725714921951	1.0	0.8	n/a	n/a	256.016002893	256.019919872	257.015863895	n/a	MAX_233.jpg	MAZ_146.jpg	MAZ_146.jpg
257.167557955	1.848546982000016	face	1.58601403236	1.0	0.8	n/a	n/a	259.016104937	259.019795895	260.015047073	n/a	15F_FE_O.jpg	15F_FE_O.jpg	16F_FE_O.jpg
263.05346489	1.9616010180000103	shape	0.835720062256	1.0	0.8	260.10592103	263.015019894	265.015065908	265.019824028	266.014158964	n/a	oval-horizontal.bmp	oval-horizontal.bmp	oval-vertical.bmp
266.131648064	1.882747887999983	shape	0.708514928818	1.0	0.8	n/a	n/a	268.014395952	268.018590927	269.013936043	n/a	oval-horizontal.bmp	oval-vertical.bmp	oval-vertical.bmp
269.133168936	1.8809180260000176	shape	0.708539009094	1.0	0.8	n/a	n/a	271.014086962	271.017710924	272.013355017	n/a	circle.bmp	circle.bmp	oval-vertical.bmp
272.130138874	1.8836200239999807	shape	0.704785108566	1.0	0.8	n/a	n/a	274.013758898	274.017431974	275.013520002	n/a	circle.bmp	oval-vertical.bmp	oval-vertical.bmp
275.128728867	1.8849639889999708	shape	1.15744805336	1.0	0.8	n/a	n/a	277.013692856	277.017282009	278.012764931	n/a	oval-horizontal.bmp	circle.bmp	circle.bmp
278.129004955	1.900751113999945	shape	0.773842096329	1.0	0.8	n/a	n/a	280.029756069	280.033838987	281.01291585	n/a	oval-horizontal.bmp	oval-horizontal.bmp	circle.bmp
284.072423935	1.9411489959999813	face	0.806057929993	1.0	0.8	281.105012894	284.012759924	286.013572931	286.017958879	287.012520075	n/a	FFZ_18.jpg	FAZ_129.jpg	FAZ_129.jpg
287.178960085	1.8507919309999463	face	1.37001919746	1.0	0.8	n/a	n/a	289.029752016	289.033370018	290.02817893	n/a	20M_FE_O.jpg	24M_FE_O.jpg	24M_FE_O.jpg
290.166764021	1.862488030999998	face	0.67298579216	1.0	0.8	n/a	n/a	292.029252052	292.033318996	293.027772903	n/a	FAZ_23.jpg	FAX_25.jpg	FAX_25.jpg
293.19215703	1.83542585400005	face	1.070333004	1.0	0.8	n/a	n/a	295.027582884	295.031111002	296.027613878	n/a	33M_FE_O.jpg	33M_FE_O.jpg	35M_FE_O.jpg
296.194009066	1.834419012000012	face	1.15570116043	1.0	0.8	n/a	n/a	298.028428078	298.032261848	299.027616978	n/a	01F_AN_O.jpg	01F_AN_O.jpg	02F_AN_O.jpg
299.16831708	1.8594079009999973	face	1.0346159935	1.0	0.8	n/a	n/a	301.027724981	301.031368971	302.026853085	n/a	MFZ_132.jpg	MFZ_132.jpg	MFZ_120.jpg
305.063133001	1.9643628599999945	shape	0.950031995773	0.0	0.8	302.121327877	305.026597977	307.027495861	307.032021999	308.026180029	n/a	oval-horizontal.bmp	oval-vertical.bmp	oval-vertical.bmp
308.146697998	1.87933993300004	shape	0.936506032944	1.0	0.8	n/a	n/a	310.026037931	310.029692888	311.025901079	n/a	circle.bmp	oval-vertical.bmp	oval-vertical.bmp
311.149697065	1.8766407969999928	shape	0.786960124969	1.0	0.8	n/a	n/a	313.026337862	313.030238867	314.026170969	n/a	oval-horizontal.bmp	oval-horizontal.bmp	oval-vertical.bmp
314.14645505	1.8796708579999968	shape	0.653481960297	1.0	0.8	n/a	n/a	316.026125908	316.030185938	317.025629997	n/a	oval-horizontal.bmp	oval-horizontal.bmp	circle.bmp
317.145277023	1.8809468750000065	shape	1.13583302498	1.0	0.8	n/a	n/a	319.026223898	319.029900074	320.024062872	n/a	circle.bmp	circle.bmp	oval-vertical.bmp
320.144943953	1.87984299599998	shape	0.736032009125	1.0	0.8	n/a	n/a	322.024786949	322.028650999	323.024168968	n/a	oval-horizontal.bmp	circle.bmp	circle.bmp
326.108057976	1.9168899059999944	face	1.01916313171	0.0	0.8	323.120465994	326.024190903	328.024947882	328.030008078	329.023839951	n/a	17F_FE_O.jpg	18F_FE_O.jpg	18F_FE_O.jpg
329.186454058	1.838361978000023	face	1.61930799484	1.0	0.8	n/a	n/a	331.024816036	331.028492928	332.023338079	n/a	42M_AN_O.jpg	43M_AN_O.jpg	43M_AN_O.jpg
332.188679934	1.8354821199999949	face	1.35059189796	1.0	0.8	n/a	n/a	334.024162054	334.027890921	335.023056984	n/a	31M_FE_O.jpg	31M_FE_O.jpg	32M_FE_O.jpg
335.162343025	1.8620369440000104	face	1.23764705658	1.0	0.8	n/a	n/a	337.024379969	337.027884007	338.02301693	n/a	FAZ_212.jpg	FFZ_236.jpg	FFZ_236.jpg
338.184120893	1.8384110929999904	face	1.08562302589	1.0	0.8	n/a	n/a	340.022531986	340.026437998	341.021746874	n/a	06F_FE_O.jpg	06F_FE_O.jpg	08F_FE_O.jpg
341.149643898	1.8733410840000035	face	0.90123295784	1.0	0.8	n/a	n/a	343.022984982	343.02658987	344.02204895	n/a	MAZ_128.jpg	MAZ_128.jpg	MAX_39.jpg
347.057426929	1.9647550590000264	shape	0.70335817337	1.0	0.8	344.113539934	347.021023989	349.022181988	349.026659012	350.02083993	n/a	circle.bmp	oval-vertical.bmp	oval-vertical.bmp
350.135379076	1.885068892999982	shape	0.736149072647	1.0	0.8	n/a	n/a	352.020447969	352.024317026	353.020591974	n/a	oval-horizontal.bmp	oval-horizontal.bmp	circle.bmp
353.135096073	1.88557982499998	shape	1.40282702446	1.0	0.8	n/a	n/a	355.020675898	355.02452302	356.020338058	n/a	oval-horizontal.bmp	oval-vertical.bmp	oval-vertical.bmp
356.14033103	1.8806388379999817	shape	0.769577980042	1.0	0.8	n/a	n/a	358.020969868	358.024507999	359.019891977	n/a	oval-horizontal.bmp	circle.bmp	circle.bmp
359.13647604	1.883522986999992	shape	1.18557500839	1.0	0.8	n/a	n/a	361.019999027	361.023488998	362.019680023	n/a	oval-horizontal.bmp	oval-horizontal.bmp	oval-vertical.bmp
362.137007952	1.882890939000049	shape	1.05494308472	1.0	0.8	n/a	n/a	364.019898891	364.023917913	365.020279884	n/a	circle.bmp	circle.bmp	oval-vertical.bmp
368.075037003	1.945519923999996	face	0.970382928848	1.0	0.8	365.120679855	368.019021034	370.020556927	370.025054932	371.019546032	n/a	FFZ_18.jpg	FAZ_129.jpg	FAZ_129.jpg
371.183245897	1.836454152999977	face	1.33451604843	1.0	0.8	n/a	n/a	373.01970005	373.023315907	374.018993855	n/a	20M_FE_O.jpg	24M_FE_O.jpg	24M_FE_O.jpg
374.157402039	1.861192941000013	face	1.16926503181	1.0	0.8	n/a	n/a	376.01859498	376.022840023	377.01880908	n/a	FAZ_23.jpg	FAX_25.jpg	FAX_25.jpg
377.182815075	1.836505890000012	face	0.686981916428	1.0	0.8	n/a	n/a	379.019320965	379.0229249	380.017848015	n/a	33M_FE_O.jpg	33M_FE_O.jpg	35M_FE_O.jpg
380.190089941	1.8284909729999868	face	1.18443393707	1.0	0.8	n/a	n/a	382.018580914	382.022366047	383.018121004	n/a	01F_AN_O.jpg	01F_AN_O.jpg	02F_AN_O.jpg
383.157358885	1.8608989709999832	face	0.799739837646	1.0	0.8	n/a	n/a	385.018257856	385.022083044	386.017771959	394.417078018	MFZ_132.jpg	MFZ_132.jpg	MFZ_120.jpg
