onset	duration	trial_type	response_time	accuracy_binarized	tr_seconds	cueStartTime	cueEndTime	trialEndTime	fixStartTime	fixEndTime	runEndTime	stimLeft	stimTop	stimRight
11.1079239845	1.9356989861	shape	0.852396011353	1.0	0.8	8.03717279434	11.0279278755	13.0436229706	13.0607337952	14.0434617996	n/a	oval-horizontal.bmp	oval-horizontal.bmp	oval-vertical.bmp
14.1763367653	1.8670670986	shape	1.13638591766	1.0	0.8	n/a	n/a	16.0434038639	16.0597147942	17.0432078838	n/a	oval-horizontal.bmp	oval-vertical.bmp	oval-vertical.bmp
17.1605839729	1.8813638687	shape	0.633841991425	1.0	0.8	n/a	n/a	19.0419478416	19.0583488941	20.0413599014	n/a	circle.bmp	circle.bmp	oval-vertical.bmp
20.1597487926	1.8813941479	shape	0.853389024734	1.0	0.8	n/a	n/a	22.0411429405	22.0575368404	23.0409748554	n/a	circle.bmp	oval-vertical.bmp	oval-vertical.bmp
23.1481778622	1.8924720286999983	shape	0.862860918045	1.0	0.8	n/a	n/a	25.0406498909	25.0567238331	26.0396537781	n/a	oval-horizontal.bmp	circle.bmp	circle.bmp
26.1502678394	1.8893580437	shape	0.75772690773	1.0	0.8	n/a	n/a	28.0396258831	28.0559639931	29.0381839275	n/a	oval-horizontal.bmp	oval-horizontal.bmp	circle.bmp
32.1054368019	1.932820081700001	face	0.936984062195	1.0	0.8	29.1156938076	32.0377018452	34.0382568836	34.0545938015	35.0373809338	n/a	FAZ_23.jpg	FAZ_23.jpg	FAX_43.jpg
35.1868929863	1.8498938083999967	face	0.753055810928	1.0	0.8	n/a	n/a	37.0367867947	37.0539839268	38.0364699364	n/a	26M_FE_O.jpg	26M_FE_O.jpg	27M_FE_O.BMP
38.1708858013	1.8657150268999985	face	0.701662063599	1.0	0.8	n/a	n/a	40.0366008282	40.0528929234	41.0356907845	n/a	MFX_16.jpg	MFZ_50.jpg	MFZ_50.jpg
41.2036519051	1.8312559126999943	face	0.818701982498	1.0	0.8	n/a	n/a	43.0349078178	43.0519349575	44.0347189903	n/a	09F_AN_O.jpg	09F_AN_O.jpg	10F_AN_O.jpg
44.1848897934	1.8491580486000032	face	1.23485898972	1.0	0.8	n/a	n/a	46.034047842	46.0506639481	47.0338449478	n/a	38M_AN_O.BMP	39M_AN_O.jpg	39M_AN_O.jpg
47.1604878902	1.8729701042999949	face	1.06036901474	1.0	0.8	n/a	n/a	49.0334579945	49.049467802	50.0325639248	n/a	FFZ_102.jpg	FFX_130.jpg	FFX_130.jpg
53.0962197781	1.9360151291	shape	0.837250947952	1.0	0.8	50.1109549999	53.0456178188	55.0322349072	55.0486228466	56.0309958458	n/a	oval-horizontal.bmp	oval-vertical.bmp	oval-vertical.bmp
56.1482899189	1.8830580711000025	shape	0.736157894135	1.0	0.8	n/a	n/a	58.03134799	58.0474059582	59.0472099781	n/a	circle.bmp	oval-vertical.bmp	oval-vertical.bmp
59.1653208733	1.8812429905000057	shape	0.750211000443	1.0	0.8	n/a	n/a	61.0465638638	61.0627918243	62.0463199615	n/a	oval-horizontal.bmp	oval-horizontal.bmp	oval-vertical.bmp
62.1638498306	1.8819570542000008	shape	0.752635955811	1.0	0.8	n/a	n/a	64.0458068848	64.0617280006	65.0449287891	n/a	oval-horizontal.bmp	oval-horizontal.bmp	circle.bmp
65.152605772	1.8924100399	shape	0.662435054779	1.0	0.8	n/a	n/a	67.0450158119	67.0613908768	68.0442659855	n/a	circle.bmp	circle.bmp	oval-vertical.bmp
68.1546199322	1.888706922499992	shape	0.74342417717	1.0	0.8	n/a	n/a	70.0433268547	70.0606608391	71.0434279442	n/a	oval-horizontal.bmp	circle.bmp	circle.bmp
74.1415498257	1.9015469551000024	face	1.32193803787	1.0	0.8	71.123267889	74.0425508022	76.0430967808	76.0593957901	77.0414869785	n/a	03F_FE_O.jpg	05F_FE_O.jpg	05F_FE_O.jpg
77.1756408215	1.866228103600008	face	0.883795976639	1.0	0.8	n/a	n/a	79.0418689251	79.0586168766	80.0407469273	n/a	FAZ_32.jpg	FAZ_32.jpg	FAX_45.jpg
80.1759269238	1.8641209601999973	face	1.39929485321	1.0	0.8	n/a	n/a	82.040047884	82.0574138165	83.0397648811	n/a	MAZ_128.jpg	MAZ_101.jpg	MAZ_101.jpg
83.195912838	1.843487024300004	face	1.16432595253	1.0	0.8	n/a	n/a	85.0393998623	85.0559649467	86.0391287804	n/a	11F_AN_O.jpg	11F_AN_O.jpg	12F_AN_O.jpg
86.189196825	1.8490099906999973	face	0.694185018539	1.0	0.8	n/a	n/a	88.0382068157	88.0554029942	89.0379948616	n/a	26M_FE_O.jpg	33M_FE_O.jpg	33M_FE_O.jpg
89.1722528934	1.865720987399996	face	1.04263806343	1.0	0.8	n/a	n/a	91.0379738808	91.0544829369	92.0370447636	n/a	MFZ_132.jpg	MFZ_132.jpg	MFZ_120.jpg
95.0848059654	1.951333999700012	shape	0.619303941727	1.0	0.8	92.118708849	95.0335919857	97.0361399651	97.0526418686	98.0358757973	n/a	circle.bmp	oval-vertical.bmp	oval-vertical.bmp
98.1529037952	1.8829550747999944	shape	0.902403116226	1.0	0.8	n/a	n/a	100.03585887	100.051877975	101.034512997	n/a	oval-horizontal.bmp	oval-horizontal.bmp	circle.bmp
101.153577805	1.8811171050000013	shape	0.832762956619	0.0	0.8	n/a	n/a	103.03469491	103.051025867	104.033846855	n/a	oval-horizontal.bmp	oval-vertical.bmp	oval-vertical.bmp
104.150849819	1.881955147	shape	0.718451976776	1.0	0.8	n/a	n/a	106.032804966	106.050073862	107.032724857	n/a	oval-horizontal.bmp	circle.bmp	circle.bmp
107.151005983	1.8815608029999995	shape	0.927618980408	1.0	0.8	n/a	n/a	109.032566786	109.048468828	110.032081842	n/a	oval-horizontal.bmp	oval-horizontal.bmp	oval-vertical.bmp
110.142550945	1.889219046000008	shape	0.825638055801	1.0	0.8	n/a	n/a	112.031769991	112.048591852	113.031003952	n/a	circle.bmp	circle.bmp	oval-vertical.bmp
116.113422871	1.9334890840000007	face	0.772179841995	1.0	0.8	113.113525867	116.045402765	118.046911955	118.063888788	119.046737909	n/a	FAZ_23.jpg	FAZ_23.jpg	FAX_43.jpg
119.199385881	1.846030951000003	face	0.852509975433	1.0	0.8	n/a	n/a	121.045416832	121.06276679	122.044880867	n/a	26M_FE_O.jpg	26M_FE_O.jpg	27M_FE_O.BMP
122.179556847	1.865103959999999	face	0.802855014801	1.0	0.8	n/a	n/a	124.044660807	124.06072998	125.044449806	n/a	MFZ_50.jpg	MFZ_50.jpg	MFX_16.jpg
125.200055838	1.843228101000008	face	1.01407980919	1.0	0.8	n/a	n/a	127.043283939	127.060579777	128.042884827	n/a	10F_AN_O.jpg	09F_AN_O.jpg	09F_AN_O.jpg
128.185401917	1.8579130169999871	face	0.811328172684	1.0	0.8	n/a	n/a	130.043314934	130.059718847	131.042457819	n/a	38M_AN_O.BMP	39M_AN_O.jpg	39M_AN_O.jpg
131.1766119	1.8649489879999803	face	0.792727947235	1.0	0.8	n/a	n/a	133.041560888	133.058823824	134.041080952	n/a	FFZ_102.jpg	FFX_130.jpg	FFX_130.jpg
137.090524912	1.9498710629999887	shape	1.30689716339	1.0	0.8	134.125796795	137.038801908	139.040395975	139.057421923	140.039641857	n/a	oval-horizontal.bmp	oval-horizontal.bmp	oval-vertical.bmp
140.158396959	1.8815619950000269	shape	1.11936998367	1.0	0.8	n/a	n/a	142.039958954	142.056163788	143.039164782	n/a	oval-horizontal.bmp	oval-vertical.bmp	oval-vertical.bmp
143.156431913	1.8828639989999945	shape	0.635921955109	1.0	0.8	n/a	n/a	145.039295912	145.055257797	146.038232803	n/a	circle.bmp	circle.bmp	oval-vertical.bmp
146.155078888	1.8826079370000173	shape	0.902763843536	1.0	0.8	n/a	n/a	148.037686825	148.054923773	149.037501812	n/a	circle.bmp	oval-vertical.bmp	oval-vertical.bmp
149.15444088	1.8823409080000035	shape	0.645067930222	1.0	0.8	n/a	n/a	151.036781788	151.053798914	152.035829782	n/a	oval-horizontal.bmp	circle.bmp	circle.bmp
152.153927803	1.882049084000016	shape	1.0257265567795	0.0	0.8	n/a	n/a	154.035976887	154.052755833	155.035325766	n/a	oval-horizontal.bmp	oval-horizontal.bmp	circle.bmp
158.119724989	1.9152228830000129	face	1.72058486938	1.0	0.8	155.122638941	158.035354853	160.034947872	160.051643848	161.03429389	n/a	20M_FE_O.jpg	21M_FE_O.jpg	21M_FE_O.jpg
161.218442917	1.8161630630000047	face	1.25156188011	1.0	0.8	n/a	n/a	163.03460598	163.050855875	164.032485962	n/a	01F_AN_O.jpg	07F_AN_O.jpg	07F_AN_O.jpg
164.166954994	1.865640878999983	face	1.18622398376	1.0	0.8	n/a	n/a	166.032595873	166.048878908	167.031843901	n/a	FFX_139.jpg	FFZ_102.jpg	FFZ_102.jpg
167.202213764	1.829833031000021	face	1.00260901451	1.0	0.8	n/a	n/a	169.032046795	169.048130989	170.030986786	n/a	23M_AN_O.jpg	23M_AN_O.jpg	22M_AN_O.jpg
170.165449858	1.8659210200000016	face	0.724627971649	1.0	0.8	n/a	n/a	172.031370878	172.047993898	173.047177792	n/a	MAZ_146.jpg	MAZ_146.jpg	MAX_233.jpg
173.208185911	1.8387870790000136	face	1.02509498596	1.0	0.8	n/a	n/a	175.04697299	175.063514948	176.046428919	n/a	15F_FE_O.jpg	15F_FE_O.jpg	16F_FE_O.jpg
179.09402585	1.9512951379999777	shape	1.57086992264	1.0	0.8	176.133001804	179.04487896	181.045320988	181.061481953	182.044661999	n/a	oval-horizontal.bmp	oval-vertical.bmp	oval-vertical.bmp
182.162009954	1.882830858999995	shape	0.985239028931	1.0	0.8	n/a	n/a	184.044840813	184.060725927	185.042963982	n/a	circle.bmp	oval-vertical.bmp	oval-vertical.bmp
185.160658836	1.8828220369999824	shape	1.06924796104	1.0	0.8	n/a	n/a	187.043480873	187.060077906	188.042643785	n/a	oval-horizontal.bmp	oval-horizontal.bmp	oval-vertical.bmp
188.159494877	1.88283300400002	shape	0.861757040024	1.0	0.8	n/a	n/a	190.042327881	190.058884859	191.041499853	n/a	oval-horizontal.bmp	oval-horizontal.bmp	circle.bmp
191.167469978	1.8740170009999984	shape	0.744532823563	1.0	0.8	n/a	n/a	193.041486979	193.058565855	194.040923834	n/a	circle.bmp	circle.bmp	oval-vertical.bmp
194.168798923	1.872005940000008	shape	1.10612201691	1.0	0.8	n/a	n/a	196.040804863	196.057128906	197.040045977	n/a	oval-horizontal.bmp	circle.bmp	circle.bmp
200.105618	1.933318853000003	face	1.25407099724	1.0	0.8	197.128630877	200.039367914	202.038936853	202.056079865	203.039269924	n/a	FFX_54.jpg	FFX_54.jpg	FAX_51.jpg
203.189638853	1.8481650350000225	face	1.53268885612	1.0	0.8	n/a	n/a	205.037803888	205.055217981	206.037918806	n/a	40M_FE_O.BMP	41M_FE_O.jpg	41M_FE_O.jpg
206.205336809	1.8319430350000232	face	0.852127075195	1.0	0.8	n/a	n/a	208.037279844	208.053383827	209.036971807	n/a	29M_AN_O.jpg	29M_AN_O.jpg	28M_AN_O.jpg
209.176695824	1.859846114999982	face	1.02963900566	1.0	0.8	n/a	n/a	211.036541939	211.052513838	212.035666943	n/a	FFZ_18.jpg	FFZ_29.jpg	FFZ_29.jpg
212.203375816	1.8322291380000024	face	0.842433214188	1.0	0.8	n/a	n/a	214.035604954	214.051573992	215.035031796	n/a	19F_AN_O.jpg	19F_AN_O.jpg	09F_AN_O.jpg
215.179200888	1.855017900000007	face	0.789512872696	1.0	0.8	n/a	n/a	217.034218788	217.051458836	218.033833981	n/a	MFZ_132.jpg	MFZ_7.jpg	MFZ_7.jpg
221.082769871	1.950024127999996	shape	1.12151813507	1.0	0.8	218.124076843	221.033844948	223.032793999	223.050076962	224.032449961	n/a	circle.bmp	oval-vertical.bmp	oval-vertical.bmp
224.150622845	1.881124973000027	shape	0.950836896896	1.0	0.8	n/a	n/a	226.031747818	226.048311949	227.031898975	n/a	oval-horizontal.bmp	oval-horizontal.bmp	circle.bmp
227.165026903	1.88273405999999	shape	1.24965500832	1.0	0.8	n/a	n/a	229.047760963	229.063697815	230.047378778	n/a	oval-horizontal.bmp	oval-vertical.bmp	oval-vertical.bmp
230.171136856	1.875289917000004	shape	0.813493967056	1.0	0.8	n/a	n/a	232.046426773	232.063492775	233.04628396	n/a	oval-horizontal.bmp	circle.bmp	circle.bmp
233.172466993	1.873538970999988	shape	0.878082990646	1.0	0.8	n/a	n/a	235.046005964	235.062114	236.045046806	n/a	oval-horizontal.bmp	oval-horizontal.bmp	oval-vertical.bmp
236.174089909	1.8712129589999904	shape	0.974431037903	1.0	0.8	n/a	n/a	238.045302868	238.061276913	239.044624805	n/a	circle.bmp	circle.bmp	oval-vertical.bmp
242.127360821	1.9164309500000056	face	1.88844108582	0.0	0.8	239.137982845	242.044317961	244.043791771	244.060477972	245.043147802	n/a	20M_FE_O.jpg	21M_FE_O.jpg	21M_FE_O.jpg
245.210519791	1.8327021599999969	face	1.08540511131	1.0	0.8	n/a	n/a	247.043221951	247.058747768	248.042123795	n/a	07F_AN_O.jpg	07F_AN_O.jpg	01F_AN_O.jpg
248.193002939	1.848917961000012	face	0.953765869141	1.0	0.8	n/a	n/a	250.0419209	250.058143854	251.041035891	n/a	FFZ_102.jpg	FFZ_102.jpg	FFX_139.jpg
251.20844388	1.8325850960000023	face	1.08334803581	1.0	0.8	n/a	n/a	253.041028976	253.057264805	254.040300846	n/a	22M_AN_O.jpg	23M_AN_O.jpg	23M_AN_O.jpg
254.183188915	1.8566839700000344	face	0.626502037048	1.0	0.8	n/a	n/a	256.039872885	256.05662179	257.039477825	n/a	MAX_233.jpg	MAZ_146.jpg	MAZ_146.jpg
257.201394796	1.83780312600004	face	0.908421993256	1.0	0.8	n/a	n/a	259.039197922	259.055222988	260.034938812	n/a	15F_FE_O.jpg	15F_FE_O.jpg	16F_FE_O.jpg
263.088046789	1.9498071670000168	shape	0.870611906052	1.0	0.8	260.130343914	263.037734985	265.037853956	265.053443909	266.037276983	n/a	oval-horizontal.bmp	oval-horizontal.bmp	oval-vertical.bmp
266.172035933	1.8640608779999752	shape	0.717278003693	1.0	0.8	n/a	n/a	268.036096811	268.053587914	269.035842896	n/a	oval-horizontal.bmp	oval-vertical.bmp	oval-vertical.bmp
269.156879902	1.8786139489999985	shape	0.681212902069	1.0	0.8	n/a	n/a	271.035493851	271.051430941	272.034213781	n/a	circle.bmp	circle.bmp	oval-vertical.bmp
272.15888381	1.876108169999952	shape	0.628712892532	1.0	0.8	n/a	n/a	274.03499198	274.050808907	275.033958912	n/a	circle.bmp	oval-vertical.bmp	oval-vertical.bmp
275.159942865	1.8739500049999835	shape	0.777266979218	1.0	0.8	n/a	n/a	277.03389287	277.050356865	278.033177853	n/a	oval-horizontal.bmp	circle.bmp	circle.bmp
278.162437916	1.883272885999986	shape	0.790827989578	1.0	0.8	n/a	n/a	280.045710802	280.061466932	281.045415878	n/a	oval-horizontal.bmp	oval-horizontal.bmp	circle.bmp
284.098250866	1.934077023999976	face	0.903668880463	1.0	0.8	281.142267942	284.032184839	286.03232789	286.048245907	287.047844887	n/a	FFZ_18.jpg	FAZ_129.jpg	FAZ_129.jpg
287.214945793	1.8326120379999795	face	1.28399300575	1.0	0.8	n/a	n/a	289.047557831	289.064119816	290.046122789	n/a	20M_FE_O.jpg	24M_FE_O.jpg	24M_FE_O.jpg
290.197790861	1.848520994000012	face	0.803061008453	1.0	0.8	n/a	n/a	292.046311855	292.06278491	293.045384884	n/a	FAZ_23.jpg	FAX_25.jpg	FAX_25.jpg
293.220142841	1.8244500160000143	face	0.913387060165	1.0	0.8	n/a	n/a	295.044592857	295.061924934	296.044616938	n/a	33M_FE_O.jpg	33M_FE_O.jpg	35M_FE_O.jpg
296.212521791	1.831886054000052	face	0.70970416069	1.0	0.8	n/a	n/a	298.044407845	298.060312986	299.044022799	n/a	01F_AN_O.jpg	01F_AN_O.jpg	02F_AN_O.jpg
299.189180851	1.8540229800000247	face	0.674726009369	1.0	0.8	n/a	n/a	301.043203831	301.060296774	302.039978981	n/a	MFZ_132.jpg	MFZ_132.jpg	MFZ_120.jpg
305.093198776	1.948292016999972	shape	1.08459806442	1.0	0.8	302.137169838	305.04260397	307.041490793	307.058578968	308.04171586	n/a	oval-horizontal.bmp	oval-vertical.bmp	oval-vertical.bmp
308.176986933	1.8632998459999608	shape	0.717319965363	1.0	0.8	n/a	n/a	310.040286779	310.056829929	311.040733814	n/a	circle.bmp	oval-vertical.bmp	oval-vertical.bmp
311.174861908	1.865608930999997	shape	0.686150789261	1.0	0.8	n/a	n/a	313.040470839	313.056755781	314.039459944	n/a	oval-horizontal.bmp	oval-horizontal.bmp	oval-vertical.bmp
314.164062977	1.8750789160000068	shape	0.712690830231	1.0	0.8	n/a	n/a	316.039141893	316.055781841	317.038419962	n/a	oval-horizontal.bmp	oval-horizontal.bmp	circle.bmp
317.165189981	1.873060941999995	shape	0.826567173004	1.0	0.8	n/a	n/a	319.038250923	319.054794788	320.037818909	n/a	circle.bmp	circle.bmp	oval-vertical.bmp
320.166456938	1.8708100320000085	shape	0.907811880112	1.0	0.8	n/a	n/a	322.03726697	322.053539991	323.034172773	n/a	oval-horizontal.bmp	circle.bmp	circle.bmp
326.137369871	1.8982300760000044	face	1.72055912018	1.0	0.8	323.133415937	326.036013842	328.035599947	328.052878857	329.035978794	n/a	17F_FE_O.jpg	18F_FE_O.jpg	18F_FE_O.jpg
329.219666958	1.81586289400002	face	0.885411024094	1.0	0.8	n/a	n/a	331.035529852	331.051377773	332.03349185	n/a	42M_AN_O.jpg	43M_AN_O.jpg	43M_AN_O.jpg
332.205973864	1.827836036000008	face	0.948743104935	1.0	0.8	n/a	n/a	334.0338099	334.050921917	335.033294916	n/a	31M_FE_O.jpg	31M_FE_O.jpg	32M_FE_O.jpg
335.184405804	1.8488881580000225	face	0.777790784836	1.0	0.8	n/a	n/a	337.033293962	337.049441814	338.031817913	n/a	FAZ_212.jpg	FFZ_236.jpg	FFZ_236.jpg
338.209951878	1.8221778869999523	face	0.960291147232	1.0	0.8	n/a	n/a	340.032129765	340.048874855	341.031555891	n/a	06F_FE_O.jpg	06F_FE_O.jpg	08F_FE_O.jpg
341.17835784	1.866876125000033	face	0.886879920959	1.0	0.8	n/a	n/a	343.045233965	343.060954809	344.044329882	n/a	MAZ_128.jpg	MAZ_128.jpg	MAX_39.jpg
347.096813917	1.9501550199999544	shape	0.867141008377	1.0	0.8	344.142350912	347.046664953	349.046968937	349.062530994	350.046154976	n/a	circle.bmp	oval-vertical.bmp	oval-vertical.bmp
350.180551767	1.8646330839999905	shape	1.15214395523	1.0	0.8	n/a	n/a	352.045184851	352.062590837	353.044132948	n/a	oval-horizontal.bmp	oval-horizontal.bmp	circle.bmp
353.178546906	1.8658020489999672	shape	0.718724966049	1.0	0.8	n/a	n/a	355.044348955	355.061215878	356.043844938	n/a	oval-horizontal.bmp	oval-vertical.bmp	oval-vertical.bmp
356.178436995	1.8657457819999763	shape	0.660331964493	1.0	0.8	n/a	n/a	358.044182777	358.059834957	359.042483807	n/a	oval-horizontal.bmp	circle.bmp	circle.bmp
359.194397926	1.8484928609999545	shape	1.02616405487	1.0	0.8	n/a	n/a	361.042890787	361.059852839	362.041795969	n/a	oval-horizontal.bmp	oval-horizontal.bmp	oval-vertical.bmp
362.171728849	1.8667869570000448	shape	0.836205005646	1.0	0.8	n/a	n/a	364.038515806	364.055692911	365.039252996	n/a	circle.bmp	circle.bmp	oval-vertical.bmp
368.108327866	1.9325010769999835	face	0.703588008881	1.0	0.8	365.143240929	368.040621996	370.040828943	370.057226896	371.040207863	n/a	FFZ_18.jpg	FAZ_129.jpg	FAZ_129.jpg
371.224830866	1.8140699859999927	face	1.5860388279	1.0	0.8	n/a	n/a	373.038900852	373.056293964	374.038507938	n/a	20M_FE_O.jpg	24M_FE_O.jpg	24M_FE_O.jpg
374.190236807	1.848492144999966	face	0.985709905624	1.0	0.8	n/a	n/a	376.038728952	376.055106878	377.037693977	n/a	FAZ_23.jpg	FAX_25.jpg	FAX_25.jpg
377.205124855	1.832253933000004	face	1.02627682686	1.0	0.8	n/a	n/a	379.037378788	379.054378986	380.036564827	n/a	33M_FE_O.jpg	33M_FE_O.jpg	35M_FE_O.jpg
380.2139678	1.8229241370000293	face	0.809267044067	1.0	0.8	n/a	n/a	382.036891937	382.052903891	383.036368847	n/a	01F_AN_O.jpg	01F_AN_O.jpg	02F_AN_O.jpg
383.18640089	1.846575975999997	face	1.03418397903	1.0	0.8	n/a	n/a	385.032976866	385.049130917	386.032660961	394.432761908	MFZ_132.jpg	MFZ_132.jpg	MFZ_120.jpg
