onset	duration	trial_type	response_time	accuracy_binarized	tr_seconds	cueStartTime	cueEndTime	trialEndTime	fixStartTime	fixEndTime	runEndTime	stimLeft	stimTop	stimRight
11.0859529972	1.9395728111	shape	0.660363912582	1.0	0.8	8.03587794304	11.0261108875	13.0255258083	13.0421338081	14.0412478447	n/a	oval-horizontal.bmp	oval-horizontal.bmp	oval-vertical.bmp
14.159375906	1.8812270164000024	shape	0.80732011795	1.0	0.8	n/a	n/a	16.0406029224	16.0577499866	17.0372087955	n/a	oval-horizontal.bmp	oval-vertical.bmp	oval-vertical.bmp
17.1414690018	1.8991677761000003	shape	0.687212944031	1.0	0.8	n/a	n/a	19.0406367779	19.056707859	20.0402789116	n/a	circle.bmp	circle.bmp	oval-vertical.bmp
20.1569738388	1.8827271462000008	shape	0.784102916718	1.0	0.8	n/a	n/a	22.039700985	22.0559098721	23.0385799408	n/a	circle.bmp	oval-vertical.bmp	oval-vertical.bmp
23.1571707726	1.8814082144999984	shape	0.917057037354	1.0	0.8	n/a	n/a	25.0385789871	25.0546958447	26.037940979	n/a	oval-horizontal.bmp	circle.bmp	circle.bmp
26.1546089649	1.8821549416	shape	0.785943984985	1.0	0.8	n/a	n/a	28.0367639065	28.0540277958	29.0367767811	n/a	oval-horizontal.bmp	oval-horizontal.bmp	circle.bmp
32.1031959057	1.9329319	face	0.726588964462	1.0	0.8	29.1133618355	32.0355508327	34.0361278057	34.0518729687	35.0349578857	n/a	FAZ_23.jpg	FAZ_23.jpg	FAX_43.jpg
35.1804528236	1.8542661667000004	face	0.988258123398	1.0	0.8	n/a	n/a	37.0347189903	37.0506899357	38.0314259529	n/a	26M_FE_O.jpg	26M_FE_O.jpg	27M_FE_O.BMP
38.1660938263	1.8684680462000005	face	0.737143993378	1.0	0.8	n/a	n/a	40.0345618725	40.0507638454	41.033823967	n/a	MFX_16.jpg	MFZ_50.jpg	MFZ_50.jpg
41.2010707855	1.8325262070000008	face	0.969370126724	1.0	0.8	n/a	n/a	43.0335969925	43.0493988991	44.0328598022	n/a	09F_AN_O.jpg	09F_AN_O.jpg	10F_AN_O.jpg
44.1835539341	1.8490099907000044	face	0.635226964951	1.0	0.8	n/a	n/a	46.0325639248	46.0487039089	47.0307469368	n/a	38M_AN_O.BMP	39M_AN_O.jpg	39M_AN_O.jpg
47.1653189659	1.8655028343000024	face	0.883448123932	1.0	0.8	n/a	n/a	49.0308218002	49.0474739075	50.0300908089	n/a	FFZ_102.jpg	FFX_130.jpg	FFX_130.jpg
53.0903189182	1.9560980797000056	shape	0.59023809433	1.0	0.8	50.1078579426	53.046104908	55.0464169979	55.0621469021	56.0453169346	n/a	oval-horizontal.bmp	oval-vertical.bmp	oval-vertical.bmp
56.1581947803	1.886849165000001	shape	0.556384086609	1.0	0.8	n/a	n/a	58.0450439453	58.0617969036	59.0418019295	n/a	circle.bmp	oval-vertical.bmp	oval-vertical.bmp
59.1589519978	1.8857789038999968	shape	1.52107691765	1.0	0.8	n/a	n/a	61.0447309017	61.0612959862	62.0431540012	n/a	oval-horizontal.bmp	oval-horizontal.bmp	oval-vertical.bmp
62.1606400013	1.882764816300004	shape	0.636502027512	1.0	0.8	n/a	n/a	64.0434048176	64.0603439808	65.0419299603	n/a	oval-horizontal.bmp	oval-horizontal.bmp	circle.bmp
65.160807848	1.881601095199997	shape	0.753072023392	1.0	0.8	n/a	n/a	67.0424089432	67.0586299896	68.0417327881	n/a	circle.bmp	circle.bmp	oval-vertical.bmp
68.1591899395	1.8822908400999976	shape	0.638010978699	1.0	0.8	n/a	n/a	70.0414807796	70.058120966	71.0402209759	n/a	oval-horizontal.bmp	circle.bmp	circle.bmp
74.1339018345	1.905596017800008	face	0.87557888031	1.0	0.8	71.1201999187	74.0398619175	76.0394978523	76.056019783	77.0389368534	n/a	03F_FE_O.jpg	05F_FE_O.jpg	05F_FE_O.jpg
77.16760993	1.867455005700009	face	0.870117902756	1.0	0.8	n/a	n/a	79.0350649357	79.0521059036	80.0359358788	n/a	FAZ_32.jpg	FAZ_32.jpg	FAX_45.jpg
80.1703209877	1.8668298720999985	face	1.70517897606	1.0	0.8	n/a	n/a	82.0371508598	82.0534539223	83.0369448662	n/a	MAZ_128.jpg	MAZ_101.jpg	MAZ_101.jpg
83.188423872	1.8488669394999988	face	0.804479837418	1.0	0.8	n/a	n/a	85.0372908115	85.0535738468	86.035299778	n/a	11F_AN_O.jpg	11F_AN_O.jpg	12F_AN_O.jpg
86.1866748333	1.8488471507999973	face	0.685163021088	1.0	0.8	n/a	n/a	88.0355219841	88.0520730019	89.0346059799	n/a	26M_FE_O.jpg	33M_FE_O.jpg	33M_FE_O.jpg
89.169095993	1.865659952200005	face	1.16960406303	1.0	0.8	n/a	n/a	91.0347559452	91.0510699749	92.0340309143	n/a	MFZ_132.jpg	MFZ_132.jpg	MFZ_120.jpg
95.0833668709	1.9496870041	shape	0.659806013107	1.0	0.8	92.1165258884	95.0330579281	97.033053875	97.0498518944	98.0319588184	n/a	circle.bmp	oval-vertical.bmp	oval-vertical.bmp
98.1454708576	1.900893926400002	shape	0.587177991867	1.0	0.8	n/a	n/a	100.046364784	100.062194824	101.045802832	n/a	oval-horizontal.bmp	oval-horizontal.bmp	circle.bmp
101.162547827	1.868807077	shape	0.537513017654	1.0	0.8	n/a	n/a	103.031354904	103.04755497	104.030128002	n/a	oval-horizontal.bmp	oval-vertical.bmp	oval-vertical.bmp
104.147990942	1.882698058999992	shape	0.885648012161	1.0	0.8	n/a	n/a	106.030689001	106.047494888	107.046195984	n/a	oval-horizontal.bmp	circle.bmp	circle.bmp
107.164241791	1.8815050120000048	shape	0.585913896561	1.0	0.8	n/a	n/a	109.045746803	109.06170392	110.04518795	n/a	oval-horizontal.bmp	oval-horizontal.bmp	oval-vertical.bmp
110.163302898	1.881464004999998	shape	0.535804033279	1.0	0.8	n/a	n/a	112.044766903	112.060750961	113.044490814	n/a	circle.bmp	circle.bmp	oval-vertical.bmp
116.103681803	1.939774990000004	face	0.692599058151	1.0	0.8	113.128038883	116.043193817	118.043456793	118.0591259	119.042725801	n/a	FAZ_23.jpg	FAZ_23.jpg	FAX_43.jpg
119.188971996	1.850054979999996	face	0.803556919098	1.0	0.8	n/a	n/a	121.039026976	121.056393862	122.038822889	n/a	26M_FE_O.jpg	26M_FE_O.jpg	27M_FE_O.BMP
122.173418999	1.8683609959999927	face	0.804683923721	1.0	0.8	n/a	n/a	124.041779995	124.058669806	125.040901899	n/a	MFZ_50.jpg	MFZ_50.jpg	MFX_16.jpg
125.209095001	1.8309829240000115	face	0.769424200058	1.0	0.8	n/a	n/a	127.040077925	127.056723833	128.040439844	n/a	10F_AN_O.jpg	09F_AN_O.jpg	09F_AN_O.jpg
128.190048933	1.849400043999992	face	0.6516289711	1.0	0.8	n/a	n/a	130.039448977	130.05567193	131.038314819	n/a	38M_AN_O.BMP	39M_AN_O.jpg	39M_AN_O.jpg
131.172834873	1.8659460549999949	face	0.719193935394	1.0	0.8	n/a	n/a	133.038780928	133.055372	134.037772894	n/a	FFZ_102.jpg	FFX_130.jpg	FFX_130.jpg
137.08779192	1.948328972000013	shape	0.642953872681	1.0	0.8	134.145716906	137.036443949	139.036120892	139.052452803	140.036160946	n/a	oval-horizontal.bmp	oval-horizontal.bmp	oval-vertical.bmp
140.152802944	1.880605935999995	shape	0.583935022354	1.0	0.8	n/a	n/a	142.03340888	142.049412966	143.032739878	n/a	oval-horizontal.bmp	oval-vertical.bmp	oval-vertical.bmp
143.150080919	1.885470867000009	shape	0.655035972595	1.0	0.8	n/a	n/a	145.035551786	145.051942825	146.034577847	n/a	circle.bmp	circle.bmp	oval-vertical.bmp
146.151447773	1.882627009999993	shape	0.652369976044	1.0	0.8	n/a	n/a	148.034074783	148.049891949	149.03369689	n/a	circle.bmp	oval-vertical.bmp	oval-vertical.bmp
149.150507927	1.881814956999989	shape	0.720024108887	1.0	0.8	n/a	n/a	151.032322884	151.049585819	152.031576872	n/a	oval-horizontal.bmp	circle.bmp	circle.bmp
152.14981699	1.8824269769999944	shape	0.769718885422	1.0	0.8	n/a	n/a	154.032243967	154.048478842	155.031197786	n/a	oval-horizontal.bmp	oval-horizontal.bmp	circle.bmp
158.115307808	1.9150681489999783	face	1.09169602394	1.0	0.8	155.11676383	158.030409813	160.030375957	160.04681778	161.045925856	n/a	20M_FE_O.jpg	21M_FE_O.jpg	21M_FE_O.jpg
161.209887981	1.833668947999996	face	0.603572845459	1.0	0.8	n/a	n/a	163.043556929	163.060077906	164.045411825	n/a	01F_AN_O.jpg	07F_AN_O.jpg	07F_AN_O.jpg
164.177246809	1.8675441740000167	face	0.853872060776	1.0	0.8	n/a	n/a	166.044790983	166.061986923	167.045092821	n/a	FFX_139.jpg	FFZ_102.jpg	FFZ_102.jpg
167.212264776	1.8321561819999768	face	0.719166994095	1.0	0.8	n/a	n/a	169.044420958	169.06117177	170.043309927	n/a	23M_AN_O.jpg	23M_AN_O.jpg	22M_AN_O.jpg
170.178320885	1.8649389739999835	face	0.63689494133	1.0	0.8	n/a	n/a	172.043259859	172.060149908	173.042369843	n/a	MAZ_146.jpg	MAZ_146.jpg	MAX_233.jpg
173.198520899	1.843734979000004	face	1.11239218712	1.0	0.8	n/a	n/a	175.042255878	175.058551788	176.041549921	n/a	15F_FE_O.jpg	15F_FE_O.jpg	16F_FE_O.jpg
179.085333824	1.9554071430000024	shape	0.60858798027	1.0	0.8	176.128201962	179.040816784	181.040740967	181.056085825	182.036023855	n/a	oval-horizontal.bmp	oval-vertical.bmp	oval-vertical.bmp
182.153324842	1.8832130440000008	shape	0.602678060532	1.0	0.8	n/a	n/a	184.036537886	184.053957939	185.038706779	n/a	circle.bmp	oval-vertical.bmp	oval-vertical.bmp
185.154676914	1.8842048650000152	shape	0.68784403801	1.0	0.8	n/a	n/a	187.038881779	187.055341959	188.038193941	n/a	oval-horizontal.bmp	oval-horizontal.bmp	oval-vertical.bmp
188.155342817	1.8817400940000084	shape	0.716952085495	1.0	0.8	n/a	n/a	190.037082911	190.054722786	191.036433935	n/a	oval-horizontal.bmp	oval-horizontal.bmp	circle.bmp
191.157569885	1.87923002300002	shape	0.732392072678	1.0	0.8	n/a	n/a	193.036799908	193.052350998	194.035605907	n/a	circle.bmp	circle.bmp	oval-vertical.bmp
194.153143883	1.882937907999974	shape	0.501940011978	1.0	0.8	n/a	n/a	196.036081791	196.052055836	197.034557819	n/a	oval-horizontal.bmp	circle.bmp	circle.bmp
200.101679802	1.9328520299999925	face	0.693784952164	1.0	0.8	197.123495817	200.034178972	202.034531832	202.050246	203.033520937	n/a	FFX_54.jpg	FFX_54.jpg	FAX_51.jpg
203.184337854	1.8462131029999969	face	0.77012181282	1.0	0.8	n/a	n/a	205.030550957	205.047982931	206.032781839	n/a	40M_FE_O.BMP	41M_FE_O.jpg	41M_FE_O.jpg
206.198999882	1.833651065999988	face	0.687273025513	1.0	0.8	n/a	n/a	208.032650948	208.048905849	209.031326771	n/a	29M_AN_O.jpg	29M_AN_O.jpg	28M_AN_O.jpg
209.182229996	1.8490707870000165	face	0.650415182114	1.0	0.8	n/a	n/a	211.031300783	211.04744482	212.030471802	n/a	FFZ_18.jpg	FFZ_29.jpg	FFZ_29.jpg
212.198472977	1.8319859500000173	face	0.819365024567	1.0	0.8	n/a	n/a	214.030458927	214.046741962	215.046077967	n/a	19F_AN_O.jpg	19F_AN_O.jpg	09F_AN_O.jpg
215.187182903	1.8590428830000008	face	0.596855163574	1.0	0.8	n/a	n/a	217.046225786	217.062216997	218.045310974	n/a	MFZ_132.jpg	MFZ_7.jpg	MFZ_7.jpg
221.089579821	1.954533099999992	shape	0.574804782867	1.0	0.8	218.137674809	221.044595003	223.044112921	223.060753822	224.039936781	n/a	circle.bmp	oval-vertical.bmp	oval-vertical.bmp
224.160928965	1.8800330159999987	shape	0.702356100082	1.0	0.8	n/a	n/a	226.040961981	226.058057785	227.043145895	n/a	oval-horizontal.bmp	oval-horizontal.bmp	circle.bmp
227.176371813	1.8663890359999868	shape	0.454931020737	1.0	0.8	n/a	n/a	229.042760849	229.058930874	230.042158842	n/a	oval-horizontal.bmp	oval-vertical.bmp	oval-vertical.bmp
230.175949812	1.865164041000014	shape	0.434389829636	1.0	0.8	n/a	n/a	232.041113853	232.058596849	233.040870905	n/a	oval-horizontal.bmp	circle.bmp	circle.bmp
233.162066936	1.878597022000008	shape	0.531857967377	1.0	0.8	n/a	n/a	235.040663958	235.056658983	236.038988829	n/a	oval-horizontal.bmp	oval-horizontal.bmp	oval-vertical.bmp
236.157135963	1.882277012000003	shape	0.469763994217	1.0	0.8	n/a	n/a	238.039412975	238.05614996	239.03864789	n/a	circle.bmp	circle.bmp	oval-vertical.bmp
242.121965885	1.9155590539999992	face	1.23972201347	1.0	0.8	239.133616924	242.038137913	244.037524939	244.054345846	245.033688784	n/a	20M_FE_O.jpg	21M_FE_O.jpg	21M_FE_O.jpg
245.201362848	1.835205078000001	face	0.601262807846	1.0	0.8	n/a	n/a	247.036567926	247.053307772	248.035484791	n/a	07F_AN_O.jpg	07F_AN_O.jpg	01F_AN_O.jpg
248.186554909	1.8494250770000065	face	0.620061159134	1.0	0.8	n/a	n/a	250.035979986	250.052856922	251.035811901	n/a	FFZ_102.jpg	FFZ_102.jpg	FFX_139.jpg
251.205208778	1.8300452239999745	face	1.19936180115	1.0	0.8	n/a	n/a	253.035254002	253.051395893	254.034577847	n/a	22M_AN_O.jpg	23M_AN_O.jpg	23M_AN_O.jpg
254.172998905	1.86098408700002	face	0.582537174225	1.0	0.8	n/a	n/a	256.033982992	256.050580978	257.033407927	n/a	MAX_233.jpg	MAZ_146.jpg	MAZ_146.jpg
257.201734781	1.8315441609999537	face	1.36910891533	1.0	0.8	n/a	n/a	259.033278942	259.049462795	260.031962872	n/a	15F_FE_O.jpg	15F_FE_O.jpg	16F_FE_O.jpg
263.07722497	1.9539778230000024	shape	0.541090011597	1.0	0.8	260.128842831	263.030601978	265.031202793	265.047564983	266.043499947	n/a	oval-horizontal.bmp	oval-horizontal.bmp	oval-vertical.bmp
266.177728891	1.8529250629999865	shape	0.603683948517	1.0	0.8	n/a	n/a	268.030653954	268.04718399	269.046469927	n/a	oval-horizontal.bmp	oval-vertical.bmp	oval-vertical.bmp
269.180284977	1.8655138020000093	shape	0.62092089653	1.0	0.8	n/a	n/a	271.045798779	271.063068867	272.0448668	n/a	circle.bmp	circle.bmp	oval-vertical.bmp
272.179941893	1.8645510670000365	shape	0.651831150055	1.0	0.8	n/a	n/a	274.04449296	274.061772823	275.043504953	n/a	circle.bmp	oval-vertical.bmp	oval-vertical.bmp
275.178073883	1.865575074999981	shape	0.485918045044	1.0	0.8	n/a	n/a	277.043648958	277.060669899	278.043301821	n/a	oval-horizontal.bmp	circle.bmp	circle.bmp
278.167836905	1.874830007000014	shape	0.661393165588	1.0	0.8	n/a	n/a	280.042666912	280.059481859	281.04238987	n/a	oval-horizontal.bmp	oval-horizontal.bmp	circle.bmp
284.103680849	1.937931060999972	face	0.557981967926	1.0	0.8	281.135473967	284.041052818	286.04161191	286.057796001	287.037277937	n/a	FFZ_18.jpg	FAZ_129.jpg	FAZ_129.jpg
287.208460808	1.831783056000006	face	1.03633189201	1.0	0.8	n/a	n/a	289.040243864	289.05744195	290.039505959	n/a	20M_FE_O.jpg	24M_FE_O.jpg	24M_FE_O.jpg
290.190680981	1.849375963	face	0.586588144302	1.0	0.8	n/a	n/a	292.040056944	292.056218863	293.039433956	n/a	FAZ_23.jpg	FAX_25.jpg	FAX_25.jpg
293.206081867	1.832729100999984	face	0.619122982025	1.0	0.8	n/a	n/a	295.038810968	295.055720806	296.037788868	n/a	33M_FE_O.jpg	33M_FE_O.jpg	35M_FE_O.jpg
296.221822977	1.8156239990000245	face	0.601819992065	1.0	0.8	n/a	n/a	298.037446976	298.054529905	299.037065983	n/a	01F_AN_O.jpg	01F_AN_O.jpg	02F_AN_O.jpg
299.188111782	1.8485121729999603	face	0.67030787468	1.0	0.8	n/a	n/a	301.036623955	301.052561998	302.035976887	n/a	MFZ_132.jpg	MFZ_132.jpg	MFZ_120.jpg
305.080870867	1.954214095999987	shape	0.67507314682	1.0	0.8	302.135727882	305.034640789	307.035084963	307.051648855	308.031406879	n/a	oval-horizontal.bmp	oval-vertical.bmp	oval-vertical.bmp
308.165814877	1.868638992000001	shape	0.436522960663	1.0	0.8	n/a	n/a	310.034453869	310.05072999	311.034034967	n/a	circle.bmp	oval-vertical.bmp	oval-vertical.bmp
311.166944981	1.866328001000056	shape	0.952929973602	1.0	0.8	n/a	n/a	313.033272982	313.049979925	314.033335924	n/a	oval-horizontal.bmp	oval-horizontal.bmp	oval-vertical.bmp
314.166933775	1.8656301499999584	shape	0.686424970627	1.0	0.8	n/a	n/a	316.032563925	316.048178911	317.031673908	n/a	oval-horizontal.bmp	oval-horizontal.bmp	circle.bmp
317.164840937	1.865566015000013	shape	0.602849006653	1.0	0.8	n/a	n/a	319.030406952	319.047670841	320.030095816	n/a	circle.bmp	circle.bmp	oval-vertical.bmp
320.155006886	1.8753590579999584	shape	0.446307182312	1.0	0.8	n/a	n/a	322.030365944	322.046708822	323.046030998	n/a	oval-horizontal.bmp	circle.bmp	circle.bmp
326.141376972	1.9004960060000256	face	0.652439117432	1.0	0.8	323.143343925	326.045430899	328.041872978	328.057439804	329.042081833	n/a	17F_FE_O.jpg	18F_FE_O.jpg	18F_FE_O.jpg
329.212056875	1.8325350290000413	face	0.619959115982	1.0	0.8	n/a	n/a	331.044591904	331.060582876	332.04419589	n/a	42M_AN_O.jpg	43M_AN_O.jpg	43M_AN_O.jpg
332.228064775	1.815869093000004	face	0.570008039474	1.0	0.8	n/a	n/a	334.043933868	334.060283899	335.042775869	n/a	31M_FE_O.jpg	31M_FE_O.jpg	32M_FE_O.jpg
335.195077896	1.8472819330000327	face	0.753154039383	1.0	0.8	n/a	n/a	337.042359829	337.058303833	338.04192996	n/a	FAZ_212.jpg	FFZ_236.jpg	FFZ_236.jpg
338.21285677	1.8278431890000209	face	0.664865016937	1.0	0.8	n/a	n/a	340.040699959	340.057881832	341.040821791	n/a	06F_FE_O.jpg	06F_FE_O.jpg	08F_FE_O.jpg
341.191810846	1.848613978000003	face	0.693609952927	1.0	0.8	n/a	n/a	343.040424824	343.056989908	344.039685965	n/a	MAZ_128.jpg	MAZ_128.jpg	MAX_39.jpg
347.084410906	1.9545750620000035	shape	0.657517910004	1.0	0.8	344.140466928	347.038565874	349.038985968	349.054742813	350.03584981	n/a	circle.bmp	oval-vertical.bmp	oval-vertical.bmp
350.169867992	1.867585898000016	shape	0.486332893372	1.0	0.8	n/a	n/a	352.03745389	352.054614782	353.037093878	n/a	oval-horizontal.bmp	oval-horizontal.bmp	circle.bmp
353.171319962	1.8655760280000209	shape	0.570290088654	1.0	0.8	n/a	n/a	355.03689599	355.052761793	356.036712885	n/a	oval-horizontal.bmp	oval-vertical.bmp	oval-vertical.bmp
356.171036005	1.8653519149999624	shape	0.552514076233	1.0	0.8	n/a	n/a	358.03638792	358.0529809	359.034751892	n/a	oval-horizontal.bmp	circle.bmp	circle.bmp
359.168898821	1.8659241199999883	shape	0.469981908798	1.0	0.8	n/a	n/a	361.034822941	361.050865889	362.034238815	n/a	oval-horizontal.bmp	oval-horizontal.bmp	oval-vertical.bmp
362.168942928	1.8647229670000345	shape	0.577191114426	1.0	0.8	n/a	n/a	364.033665895	364.049971819	365.033410788	n/a	circle.bmp	circle.bmp	oval-vertical.bmp
368.095290899	1.9492878919999723	face	0.486165046692	1.0	0.8	365.134989977	368.032557964	370.044578791	370.062237978	371.046140909	n/a	FFZ_18.jpg	FAZ_129.jpg	FAZ_129.jpg
371.23088789	1.8000130649999733	face	0.588701963425	0.0	0.8	n/a	n/a	373.030900955	373.048201799	374.031662941	n/a	20M_FE_O.jpg	24M_FE_O.jpg	24M_FE_O.jpg
374.181670904	1.8655769830000395	face	0.569869995117	1.0	0.8	n/a	n/a	376.047247887	376.063125849	377.045563936	n/a	FAZ_23.jpg	FAX_25.jpg	FAX_25.jpg
377.216225863	1.8295309540000064	face	0.733932971954	1.0	0.8	n/a	n/a	379.045756817	379.062644005	380.045115948	n/a	33M_FE_O.jpg	33M_FE_O.jpg	35M_FE_O.jpg
380.229949951	1.815749884000013	face	0.602723836899	1.0	0.8	n/a	n/a	382.045699835	382.060786963	383.044270992	n/a	01F_AN_O.jpg	01F_AN_O.jpg	02F_AN_O.jpg
383.197394848	1.8467271330000017	face	0.60106086731	1.0	0.8	n/a	n/a	385.044121981	385.060432911	386.042943954	394.440387964	MFZ_132.jpg	MFZ_132.jpg	MFZ_120.jpg
