onset	duration	trial_type	response_time	accuracy_binarized	tr_seconds	cueStartTime	cueEndTime	trialEndTime	fixStartTime	fixEndTime	runEndTime	stimLeft	stimTop	stimRight
11.091301918	1.9494111538000016	shape	1.3273999691	1.0	0.8	8.03472304344	11.0238199234	13.0407130718	13.0571908951	14.0397210121	n/a	oval-horizontal.bmp	oval-horizontal.bmp	oval-vertical.bmp
14.1680998802	1.8711910248000017	shape	1.17502093315	1.0	0.8	n/a	n/a	16.039290905	16.0559430122	17.0358879566	n/a	oval-horizontal.bmp	oval-vertical.bmp	oval-vertical.bmp
17.1530599594	1.8860900401999992	shape	0.769740819931	1.0	0.8	n/a	n/a	19.0391499996	19.0556569099	20.0384290218	n/a	circle.bmp	circle.bmp	oval-vertical.bmp
20.1554479599	1.881891965900003	shape	0.670793056488	1.0	0.8	n/a	n/a	22.0373399258	22.0546560287	23.0377800465	n/a	circle.bmp	oval-vertical.bmp	oval-vertical.bmp
23.1543669701	1.882416963499999	shape	0.784606218338	1.0	0.8	n/a	n/a	25.0367839336	25.0536410809	26.0358400345	n/a	oval-horizontal.bmp	circle.bmp	circle.bmp
26.1536848545	1.8815422057999989	shape	0.885991811752	1.0	0.8	n/a	n/a	28.0352270603	28.0517110825	29.0351960659	n/a	oval-horizontal.bmp	oval-horizontal.bmp	circle.bmp
32.1017270088	1.932692051000004	face	0.810570001602	1.0	0.8	29.1118130684	32.0341389179	34.0344190598	34.0507180691	35.0332570076	n/a	FAZ_23.jpg	FAZ_23.jpg	FAX_43.jpg
35.1794199944	1.8534359931	face	0.89079117775	1.0	0.8	n/a	n/a	37.0328559875	37.049836874	38.0296449661	n/a	26M_FE_O.jpg	26M_FE_O.jpg	27M_FE_O.BMP
38.1637179852	1.8691039085000007	face	1.07304692268	1.0	0.8	n/a	n/a	40.0328218937	40.0488779545	41.0321249962	n/a	MFX_16.jpg	MFZ_50.jpg	MFZ_50.jpg
41.1989190578	1.8330848217000053	face	1.20177698135	1.0	0.8	n/a	n/a	43.0320038795	43.048099041	44.0308289528	n/a	09F_AN_O.jpg	09F_AN_O.jpg	10F_AN_O.jpg
44.1809990406	1.8494708538	face	0.81970500946	1.0	0.8	n/a	n/a	46.0304698944	46.046683073	47.0297379494	n/a	38M_AN_O.BMP	39M_AN_O.jpg	39M_AN_O.jpg
47.1641769409	1.8646869660000007	face	0.951838970184	1.0	0.8	n/a	n/a	49.0288639069	49.0462119579	50.0285429955	n/a	FFZ_102.jpg	FFX_130.jpg	FFX_130.jpg
53.0954298973	1.949180126199998	shape	0.743489980698	1.0	0.8	50.1067709923	53.0445358753	55.0446100235	55.0606579781	56.0434110165	n/a	oval-horizontal.bmp	oval-vertical.bmp	oval-vertical.bmp
56.156332016	1.887446880299997	shape	0.557023048401	1.0	0.8	n/a	n/a	58.0437788963	58.0598499775	59.0396449566	n/a	circle.bmp	oval-vertical.bmp	oval-vertical.bmp
59.1577248573	1.8852450847999973	shape	0.853815078735	1.0	0.8	n/a	n/a	61.0429699421	61.0598020554	62.0424120426	n/a	oval-horizontal.bmp	oval-horizontal.bmp	oval-vertical.bmp
62.1593010426	1.8820128439999948	shape	0.736446142197	1.0	0.8	n/a	n/a	64.0413138866	64.0584659576	65.0416629314	n/a	oval-horizontal.bmp	oval-horizontal.bmp	circle.bmp
65.1581139565	1.8826289176000013	shape	0.985847949982	1.0	0.8	n/a	n/a	67.0407428741	67.056540966	68.0397849083	n/a	circle.bmp	circle.bmp	oval-vertical.bmp
68.1570830345	1.8828239440999963	shape	0.703320980072	1.0	0.8	n/a	n/a	70.0399069786	70.0558080673	71.0387599468	n/a	oval-horizontal.bmp	circle.bmp	circle.bmp
74.1218409538	1.915523052200001	face	0.843580961227	1.0	0.8	71.1168830395	74.0380439758	76.037364006	76.0535800457	77.0366258621	n/a	03F_FE_O.jpg	05F_FE_O.jpg	05F_FE_O.jpg
77.1663739681	1.8697929382999945	face	0.874201059341	1.0	0.8	n/a	n/a	79.0361669064	79.0532479286	80.0342800617	n/a	FAZ_32.jpg	FAZ_32.jpg	FAX_45.jpg
80.1684989929	1.8679709434999976	face	1.46951293945	1.0	0.8	n/a	n/a	82.0364699364	82.0522949696	83.035130024	n/a	MAZ_128.jpg	MAZ_101.jpg	MAZ_101.jpg
83.1862440109	1.8486828804000053	face	1.0693769455	1.0	0.8	n/a	n/a	85.0349268913	85.0520188808	86.0349230766	n/a	11F_AN_O.jpg	11F_AN_O.jpg	12F_AN_O.jpg
86.2024030685	1.8309619427	face	0.885850906372	1.0	0.8	n/a	n/a	88.0333650112	88.0507318974	89.0331559181	n/a	26M_FE_O.jpg	33M_FE_O.jpg	33M_FE_O.jpg
89.1673400402	1.865545988099996	face	0.836504936218	1.0	0.8	n/a	n/a	91.0328860283	91.0488710403	92.0324850082	n/a	MFZ_132.jpg	MFZ_132.jpg	MFZ_120.jpg
95.0753939152	1.9559969902000065	shape	0.62633395195	1.0	0.8	92.1119980812	95.03125	97.0313909054	97.0476379395	98.0305280685	n/a	circle.bmp	oval-vertical.bmp	oval-vertical.bmp
98.1437959671	1.900638103899993	shape	0.670166969299	1.0	0.8	n/a	n/a	100.044434071	100.060775042	101.04383707	n/a	oval-horizontal.bmp	oval-horizontal.bmp	circle.bmp
101.161746979	1.868503093000001	shape	0.553290843964	1.0	0.8	n/a	n/a	103.030250072	103.045861959	104.029308081	n/a	oval-horizontal.bmp	oval-vertical.bmp	oval-vertical.bmp
104.145823002	1.883256911999993	shape	0.852766036987	1.0	0.8	n/a	n/a	106.029079914	106.045201063	107.045129061	n/a	oval-horizontal.bmp	circle.bmp	circle.bmp
107.16257596	1.882149935000001	shape	0.801539897919	1.0	0.8	n/a	n/a	109.044725895	109.060747862	110.043053865	n/a	oval-horizontal.bmp	oval-horizontal.bmp	oval-vertical.bmp
110.160675049	1.8826680179999893	shape	0.636861085892	1.0	0.8	n/a	n/a	112.043343067	112.059826851	113.042043924	n/a	circle.bmp	circle.bmp	oval-vertical.bmp
116.102025986	1.939578056000002	face	0.675957918167	1.0	0.8	113.122745037	116.04105401	118.041604042	118.057261944	119.040983915	n/a	FAZ_23.jpg	FAZ_23.jpg	FAX_43.jpg
119.187516928	1.850132942000002	face	0.669950962067	1.0	0.8	n/a	n/a	121.03764987	121.054409981	122.038322926	n/a	26M_FE_O.jpg	26M_FE_O.jpg	27M_FE_O.BMP
122.172008991	1.8677020079999949	face	0.604614019394	1.0	0.8	n/a	n/a	124.039710999	124.056805849	125.039193869	n/a	MFZ_50.jpg	MFZ_50.jpg	MFX_16.jpg
125.206430912	1.8316349979999984	face	0.685449123383	1.0	0.8	n/a	n/a	127.03806591	127.055636883	128.03828907	n/a	10F_AN_O.jpg	09F_AN_O.jpg	09F_AN_O.jpg
128.189844847	1.8474030490000075	face	0.703005075455	1.0	0.8	n/a	n/a	130.037247896	130.053434849	131.037045002	n/a	38M_AN_O.BMP	39M_AN_O.jpg	39M_AN_O.jpg
131.170476913	1.8663649560000124	face	0.802623987198	1.0	0.8	n/a	n/a	133.036841869	133.053695917	134.03625989	n/a	FFZ_102.jpg	FFX_130.jpg	FFX_130.jpg
137.080302954	1.9547200199999963	shape	0.643095970154	1.0	0.8	134.12322998	137.035223007	139.035022974	139.051226854	140.034528017	n/a	oval-horizontal.bmp	oval-horizontal.bmp	oval-vertical.bmp
140.151186943	1.880499125	shape	0.553047180176	1.0	0.8	n/a	n/a	142.031686068	142.04753089	143.033781052	n/a	oval-horizontal.bmp	oval-vertical.bmp	oval-vertical.bmp
143.165323973	1.8674581049999968	shape	0.554723024368	1.0	0.8	n/a	n/a	145.032782078	145.050054073	146.032245874	n/a	circle.bmp	circle.bmp	oval-vertical.bmp
146.150316954	1.8819820880000009	shape	0.637311935425	1.0	0.8	n/a	n/a	148.032299042	148.048619032	149.031934977	n/a	circle.bmp	oval-vertical.bmp	oval-vertical.bmp
149.149237871	1.8823640349999948	shape	0.587188005447	1.0	0.8	n/a	n/a	151.031601906	151.04775691	152.031135082	n/a	oval-horizontal.bmp	circle.bmp	circle.bmp
152.153707981	1.8763489720000168	shape	0.631876945496	1.0	0.8	n/a	n/a	154.030056953	154.047215939	155.029639959	n/a	oval-horizontal.bmp	oval-horizontal.bmp	circle.bmp
158.112523079	1.916067838999993	face	0.941681146622	1.0	0.8	155.117800951	158.028121948	160.028590918	160.044852972	161.043943882	n/a	20M_FE_O.jpg	21M_FE_O.jpg	21M_FE_O.jpg
161.207646847	1.8340821259999984	face	0.851135969162	1.0	0.8	n/a	n/a	163.041728973	163.058526993	164.043941975	n/a	01F_AN_O.jpg	07F_AN_O.jpg	07F_AN_O.jpg
164.193600893	1.8502070899999976	face	0.63814496994	1.0	0.8	n/a	n/a	166.043807983	166.059916019	167.042968988	n/a	FFX_139.jpg	FFZ_102.jpg	FFZ_102.jpg
167.211020947	1.831815003999992	face	0.669423103333	1.0	0.8	n/a	n/a	169.042835951	169.059844017	170.042073965	n/a	23M_AN_O.jpg	23M_AN_O.jpg	22M_AN_O.jpg
170.193239927	1.8487329489999809	face	0.752798080444	1.0	0.8	n/a	n/a	172.041972876	172.057703972	173.040165901	n/a	MAZ_146.jpg	MAZ_146.jpg	MAX_233.jpg
173.207728863	1.8328211310000029	face	1.43565011024	1.0	0.8	n/a	n/a	175.040549994	175.057095051	176.039641857	n/a	15F_FE_O.jpg	15F_FE_O.jpg	16F_FE_O.jpg
179.083710909	1.954960108000023	shape	0.575566053391	1.0	0.8	176.130892038	179.038590908	181.038671017	181.055392981	182.037895918	n/a	oval-horizontal.bmp	oval-vertical.bmp	oval-vertical.bmp
182.155660868	1.8799800869999783	shape	0.470709085464	1.0	0.8	n/a	n/a	184.035640955	184.052536964	185.037204981	n/a	circle.bmp	oval-vertical.bmp	oval-vertical.bmp
185.17020607	1.8666617869999984	shape	0.554449081421	1.0	0.8	n/a	n/a	187.036867857	187.05300808	188.036658049	n/a	oval-horizontal.bmp	oval-horizontal.bmp	oval-vertical.bmp
188.171489954	1.8649520869999776	shape	0.735496997833	0.0	0.8	n/a	n/a	190.036442041	190.053421974	191.035560846	n/a	oval-horizontal.bmp	oval-horizontal.bmp	circle.bmp
191.169226885	1.865353107000004	shape	1.06927108765	1.0	0.8	n/a	n/a	193.034579992	193.051922083	194.034306049	n/a	circle.bmp	circle.bmp	oval-vertical.bmp
194.152132988	1.8818430899999896	shape	0.668768167496	1.0	0.8	n/a	n/a	196.033976078	196.050617933	197.033699036	n/a	oval-horizontal.bmp	circle.bmp	circle.bmp
200.093292952	1.9393219939999824	face	0.74219083786	1.0	0.8	197.125649929	200.03271389	202.032614946	202.048429012	203.031147003	n/a	FFX_54.jpg	FFX_54.jpg	FAX_51.jpg
203.198413849	1.8303880690000085	face	0.753872156143	1.0	0.8	n/a	n/a	205.028801918	205.045673847	206.030915022	n/a	40M_FE_O.BMP	41M_FE_O.jpg	41M_FE_O.jpg
206.196969032	1.8338048459999925	face	0.688413143158	1.0	0.8	n/a	n/a	208.030773878	208.047461987	209.030581951	n/a	29M_AN_O.jpg	29M_AN_O.jpg	28M_AN_O.jpg
209.181385994	1.8478548530000007	face	0.834653139114	1.0	0.8	n/a	n/a	211.029240847	211.046489954	212.028840065	n/a	FFZ_18.jpg	FFZ_29.jpg	FFZ_29.jpg
212.200491905	1.828196048999985	face	0.81466293335	1.0	0.8	n/a	n/a	214.028687954	214.044641972	215.028214931	n/a	19F_AN_O.jpg	19F_AN_O.jpg	09F_AN_O.jpg
215.178529024	1.8657510280000047	face	0.667228937149	1.0	0.8	n/a	n/a	217.044280052	217.060353041	218.043256044	n/a	MFZ_132.jpg	MFZ_7.jpg	MFZ_7.jpg
221.093810081	1.948514939000006	shape	0.591464996338	1.0	0.8	218.135886908	221.042523861	223.04232502	223.059109926	224.041846037	n/a	circle.bmp	oval-vertical.bmp	oval-vertical.bmp
224.172513008	1.866998910999996	shape	0.736397981644	1.0	0.8	n/a	n/a	226.039511919	226.055976868	227.04156208	n/a	oval-horizontal.bmp	oval-horizontal.bmp	circle.bmp
227.173521996	1.8676290509999944	shape	1.23648810387	1.0	0.8	n/a	n/a	229.041151047	229.057169914	230.040472984	n/a	oval-horizontal.bmp	oval-vertical.bmp	oval-vertical.bmp
230.174840927	1.864979983000012	shape	0.651537179947	1.0	0.8	n/a	n/a	232.03982091	232.055958033	233.039043903	n/a	oval-horizontal.bmp	circle.bmp	circle.bmp
233.160501957	1.877932071999993	shape	0.698765039444	1.0	0.8	n/a	n/a	235.038434029	235.054589987	236.038195848	n/a	oval-horizontal.bmp	oval-horizontal.bmp	oval-vertical.bmp
236.162096977	1.8753449920000087	shape	0.763356924057	1.0	0.8	n/a	n/a	238.037441969	238.053674936	239.036805868	n/a	circle.bmp	circle.bmp	oval-vertical.bmp
242.119967937	1.9163861279999992	face	1.22506785393	1.0	0.8	239.132732868	242.03605485	244.036354065	244.052407026	245.032269955	n/a	20M_FE_O.jpg	21M_FE_O.jpg	21M_FE_O.jpg
245.216878891	1.81583309200002	face	0.869426012039	1.0	0.8	n/a	n/a	247.032711983	247.049931049	248.03481698	n/a	07F_AN_O.jpg	07F_AN_O.jpg	01F_AN_O.jpg
248.184501886	1.850401163000015	face	0.870919942856	1.0	0.8	n/a	n/a	250.034903049	250.051168919	251.034268856	n/a	FFZ_102.jpg	FFZ_102.jpg	FFX_139.jpg
251.219568968	1.813718080000001	face	0.834890127182	1.0	0.8	n/a	n/a	253.033287048	253.049376011	254.032525063	n/a	22M_AN_O.jpg	23M_AN_O.jpg	23M_AN_O.jpg
254.183290005	1.849139928999989	face	0.869029998779	1.0	0.8	n/a	n/a	256.032429934	256.048356056	257.031430006	n/a	MAX_233.jpg	MAZ_146.jpg	MAZ_146.jpg
257.205012083	1.826595783000016	face	1.01199316978	1.0	0.8	n/a	n/a	259.031607866	259.047879934	260.030917883	n/a	15F_FE_O.jpg	15F_FE_O.jpg	16F_FE_O.jpg
263.075304031	1.9545848370000272	shape	0.69119310379	1.0	0.8	260.12907505	263.029223919	265.029888868	265.045395851	266.042739868	n/a	oval-horizontal.bmp	oval-horizontal.bmp	oval-vertical.bmp
266.176866055	1.868716954999968	shape	0.820207118988	1.0	0.8	n/a	n/a	268.04558301	268.061456919	269.044759035	n/a	oval-horizontal.bmp	oval-vertical.bmp	oval-vertical.bmp
269.195348978	1.8496539589999657	shape	0.670343160629	1.0	0.8	n/a	n/a	271.045002937	271.061735868	272.044051886	n/a	circle.bmp	circle.bmp	oval-vertical.bmp
272.178071022	1.8659958840000288	shape	0.667124986649	1.0	0.8	n/a	n/a	274.044066906	274.060366869	275.042001963	n/a	circle.bmp	oval-vertical.bmp	oval-vertical.bmp
275.176796913	1.865692139000032	shape	0.685934066772	1.0	0.8	n/a	n/a	277.042489052	277.059149981	278.041843891	n/a	oval-horizontal.bmp	circle.bmp	circle.bmp
278.165819883	1.875490189000004	shape	0.995306968689	1.0	0.8	n/a	n/a	280.041310072	280.057342052	281.040863991	n/a	oval-horizontal.bmp	oval-horizontal.bmp	circle.bmp
284.107218981	1.9324729439999828	face	0.621739864349	1.0	0.8	281.137657881	284.039902925	286.039691925	286.056470871	287.035604	n/a	FFZ_18.jpg	FAZ_129.jpg	FAZ_129.jpg
287.220762014	1.8186318879999703	face	0.937053918839	1.0	0.8	n/a	n/a	289.039393902	289.055578947	290.038986921	n/a	20M_FE_O.jpg	24M_FE_O.jpg	24M_FE_O.jpg
290.205286026	1.833304881999993	face	0.737435102463	1.0	0.8	n/a	n/a	292.038590908	292.055482864	293.036684036	n/a	FAZ_23.jpg	FAX_25.jpg	FAX_25.jpg
293.205203056	1.832605838999996	face	0.768327951431	1.0	0.8	n/a	n/a	295.037808895	295.05346489	296.035887003	n/a	33M_FE_O.jpg	33M_FE_O.jpg	35M_FE_O.jpg
296.220730066	1.8153028490000336	face	0.783181905746	1.0	0.8	n/a	n/a	298.036032915	298.052763939	299.035168886	n/a	01F_AN_O.jpg	01F_AN_O.jpg	02F_AN_O.jpg
299.185400009	1.8488829140000007	face	0.709847927094	1.0	0.8	n/a	n/a	301.034282923	301.051491976	302.033737898	n/a	MFZ_132.jpg	MFZ_132.jpg	MFZ_120.jpg
305.078404903	1.95499897000002	shape	0.79087305069	1.0	0.8	302.133034945	305.033642054	307.033403873	307.049921036	308.029669046	n/a	oval-horizontal.bmp	oval-vertical.bmp	oval-vertical.bmp
308.164046049	1.8686819080000416	shape	0.769898176193	1.0	0.8	n/a	n/a	310.032727957	310.049007893	311.032466888	n/a	circle.bmp	oval-vertical.bmp	oval-vertical.bmp
311.166032076	1.8659369939999808	shape	0.736799001694	1.0	0.8	n/a	n/a	313.03196907	313.048389912	314.031257868	n/a	oval-horizontal.bmp	oval-horizontal.bmp	oval-vertical.bmp
314.164706945	1.865931035000017	shape	0.719398975372	1.0	0.8	n/a	n/a	316.03063798	316.047673941	317.029867887	n/a	oval-horizontal.bmp	oval-horizontal.bmp	circle.bmp
317.163888931	1.8654501440000213	shape	0.886065006256	1.0	0.8	n/a	n/a	319.029339075	319.046100855	320.028297901	n/a	circle.bmp	circle.bmp	oval-vertical.bmp
320.162440062	1.866026878000013	shape	0.978922128677	1.0	0.8	n/a	n/a	322.02846694	322.045287848	323.028086901	n/a	oval-horizontal.bmp	circle.bmp	circle.bmp
326.127390862	1.9164810179999563	face	0.890475034714	1.0	0.8	323.129304886	326.043843985	328.04387188	328.059910059	329.040186882	n/a	17F_FE_O.jpg	18F_FE_O.jpg	18F_FE_O.jpg
329.258141994	1.7853989609999985	face	0.718094110489	1.0	0.8	n/a	n/a	331.043540955	331.059854984	332.042448044	n/a	42M_AN_O.jpg	43M_AN_O.jpg	43M_AN_O.jpg
332.209775925	1.832420110000044	face	0.802776813507	1.0	0.8	n/a	n/a	334.042196035	334.058202028	335.040534019	n/a	31M_FE_O.jpg	31M_FE_O.jpg	32M_FE_O.jpg
335.212049007	1.8284540180000024	face	0.669748067856	1.0	0.8	n/a	n/a	337.040503025	337.05646801	338.039926052	n/a	FAZ_212.jpg	FFZ_236.jpg	FFZ_236.jpg
338.223461866	1.8165380960000448	face	0.733331918716	1.0	0.8	n/a	n/a	340.039999962	340.056165934	341.039162874	n/a	06F_FE_O.jpg	06F_FE_O.jpg	08F_FE_O.jpg
341.196424961	1.8424789910000072	face	0.679070949554	1.0	0.8	n/a	n/a	343.038903952	343.055265903	344.038223028	n/a	MAZ_128.jpg	MAZ_128.jpg	MAX_39.jpg
347.083081007	1.9539370540000505	shape	0.723192930222	1.0	0.8	344.144500971	347.036679983	349.037018061	349.053928852	350.033689976	n/a	circle.bmp	oval-vertical.bmp	oval-vertical.bmp
350.167696953	1.869029044999991	shape	0.604025125504	1.0	0.8	n/a	n/a	352.036725998	352.052907944	353.035881996	n/a	oval-horizontal.bmp	oval-horizontal.bmp	circle.bmp
353.169206858	1.8660039900000245	shape	0.435409069061	1.0	0.8	n/a	n/a	355.035210848	355.052196026	356.034837961	n/a	oval-horizontal.bmp	oval-vertical.bmp	oval-vertical.bmp
356.185098886	1.849497079999992	shape	0.603943109512	1.0	0.8	n/a	n/a	358.034595966	358.050539017	359.034004927	n/a	oval-horizontal.bmp	circle.bmp	circle.bmp
359.171962023	1.860968828000012	shape	0.681743144989	1.0	0.8	n/a	n/a	361.032930851	361.050167084	362.032693863	n/a	oval-horizontal.bmp	oval-horizontal.bmp	oval-vertical.bmp
362.17441988	1.8581399919999624	shape	0.745796918869	1.0	0.8	n/a	n/a	364.032559872	364.048651934	365.031185865	n/a	circle.bmp	circle.bmp	oval-vertical.bmp
368.094040871	1.950669049999988	face	0.750617027283	1.0	0.8	365.142951012	368.030689001	370.044709921	370.060231924	371.043915987	n/a	FFZ_18.jpg	FAZ_129.jpg	FAZ_129.jpg
371.228551865	1.801544189000026	face	1.07178688049	1.0	0.8	n/a	n/a	373.030096054	373.046746016	374.028928041	n/a	20M_FE_O.jpg	24M_FE_O.jpg	24M_FE_O.jpg
374.19689703	1.832464932999983	face	1.01804685593	1.0	0.8	n/a	n/a	376.029361963	376.045403957	377.04456687	n/a	FAZ_23.jpg	FAX_25.jpg	FAX_25.jpg
377.228632927	1.8160071370000423	face	0.633718013763	1.0	0.8	n/a	n/a	379.044640064	379.060642958	380.04301095	n/a	33M_FE_O.jpg	33M_FE_O.jpg	35M_FE_O.jpg
380.22804904	1.8153419490000149	face	0.63639998436	1.0	0.8	n/a	n/a	382.043390989	382.060005903	383.042671919	n/a	01F_AN_O.jpg	01F_AN_O.jpg	02F_AN_O.jpg
383.210324049	1.832304954999984	face	0.6929500103	1.0	0.8	n/a	n/a	385.042629004	385.058719873	386.04224205	394.439868927	MFZ_132.jpg	MFZ_132.jpg	MFZ_120.jpg
