onset	duration	trial_type	response_time	accuracy_binarized	tr_seconds	cueStartTime	cueEndTime	trialEndTime	fixStartTime	fixEndTime	runEndTime	stimLeft	stimTop	stimRight
11.0884199142	1.9603130818000007	shape	1.42919802666	1.0	0.8	8.04336690903	11.0331809521	13.048732996	13.0654900074	14.0478899479	n/a	oval-horizontal.bmp	oval-horizontal.bmp	oval-vertical.bmp
14.1728670597	1.8751468659	shape	0.827347993851	0.0	0.8	n/a	n/a	16.0480139256	16.0644390583	17.0469548702	n/a	oval-horizontal.bmp	oval-vertical.bmp	oval-vertical.bmp
17.1987509727	1.8470990657999984	shape	0.692191839218	1.0	0.8	n/a	n/a	19.0458500385	19.0631270409	20.0427720547	n/a	circle.bmp	circle.bmp	oval-vertical.bmp
20.1597290039	1.8866829872000004	shape	0.60506105423	1.0	0.8	n/a	n/a	22.0464119911	22.0627939701	23.0457029343	n/a	circle.bmp	oval-vertical.bmp	oval-vertical.bmp
23.145991087	1.8996338844	shape	0.704721927643	1.0	0.8	n/a	n/a	25.0456249714	25.0621440411	26.0447289944	n/a	oval-horizontal.bmp	circle.bmp	circle.bmp
26.1615540981	1.883328914699998	shape	0.653446912766	1.0	0.8	n/a	n/a	28.0448830128	28.0609068871	29.04408288	n/a	oval-horizontal.bmp	oval-horizontal.bmp	circle.bmp
32.1101310253	1.932684898399998	face	0.904015779495	1.0	0.8	29.1154129505	32.0422949791	34.0428159237	34.0591740608	35.0416920185	n/a	FAZ_23.jpg	FAZ_23.jpg	FAX_43.jpg
35.1848549843	1.857033967999996	face	0.763531923294	1.0	0.8	n/a	n/a	37.0418889523	37.0572280884	38.0410089493	n/a	26M_FE_O.jpg	26M_FE_O.jpg	27M_FE_O.BMP
38.1685009003	1.8723351955	face	0.668565034866	1.0	0.8	n/a	n/a	40.0408360958	40.057238102	41.0400619507	n/a	MFX_16.jpg	MFZ_50.jpg	MFZ_50.jpg
41.2044670582	1.8356318473999949	face	0.690150976181	1.0	0.8	n/a	n/a	43.0400989056	43.0566060543	44.0395200253	n/a	09F_AN_O.jpg	09F_AN_O.jpg	10F_AN_O.jpg
44.1893360615	1.8503789902	face	0.621080160141	1.0	0.8	n/a	n/a	46.0397150517	46.0555999279	47.0388848782	n/a	38M_AN_O.BMP	39M_AN_O.jpg	39M_AN_O.jpg
47.175139904	1.8633689880999995	face	0.950470209122	1.0	0.8	n/a	n/a	49.0385088921	49.0548939705	50.0372180939	n/a	FFZ_102.jpg	FFX_130.jpg	FFX_130.jpg
53.0869119167	1.949932098400005	shape	0.770168066025	1.0	0.8	50.1101539135	53.036575079	55.0368440151	55.0528759956	56.0352940559	n/a	oval-horizontal.bmp	oval-vertical.bmp	oval-vertical.bmp
56.1530640125	1.8826460838999992	shape	0.528945922852	1.0	0.8	n/a	n/a	58.0357100964	58.0519928932	59.0348498821	n/a	circle.bmp	oval-vertical.bmp	oval-vertical.bmp
59.1467700005	1.9007210731000013	shape	1.10199403763	1.0	0.8	n/a	n/a	61.0474910736	61.0633759499	62.0339579582	n/a	oval-horizontal.bmp	oval-horizontal.bmp	oval-vertical.bmp
62.1486670971	1.885427951799997	shape	0.507475137711	1.0	0.8	n/a	n/a	64.0340950489	64.0504820347	65.0493459702	n/a	oval-horizontal.bmp	oval-horizontal.bmp	circle.bmp
65.1659169197	1.883934974700012	shape	0.587911128998	1.0	0.8	n/a	n/a	67.0498518944	67.066603899	68.0496389866	n/a	circle.bmp	circle.bmp	oval-vertical.bmp
68.1671578884	1.8828661442000083	shape	0.550904989243	1.0	0.8	n/a	n/a	70.0500240326	70.0652110577	71.0477790833	n/a	oval-horizontal.bmp	circle.bmp	circle.bmp
74.1371428967	1.908663034400007	face	0.710573911667	1.0	0.8	71.1193208694	74.0472080708	76.0458059311	76.063477993	77.0460848808	n/a	03F_FE_O.jpg	05F_FE_O.jpg	05F_FE_O.jpg
77.1796250343	1.866303920799993	face	0.593492984772	1.0	0.8	n/a	n/a	79.0459289551	79.0624260902	80.0452508926	n/a	FAZ_32.jpg	FAZ_32.jpg	FAX_45.jpg
80.1734390259	1.8675720691000064	face	0.636137008667	1.0	0.8	n/a	n/a	82.041011095	82.0575199127	83.0444610119	n/a	MAZ_128.jpg	MAZ_101.jpg	MAZ_101.jpg
83.1942970753	1.849908828699995	face	0.756142139435	1.0	0.8	n/a	n/a	85.044205904	85.060806036	86.0439350605	n/a	11F_AN_O.jpg	11F_AN_O.jpg	12F_AN_O.jpg
86.2273030281	1.8167610169000028	face	0.653465986252	1.0	0.8	n/a	n/a	88.044064045	88.0606780052	89.0430140495	n/a	26M_FE_O.jpg	33M_FE_O.jpg	33M_FE_O.jpg
89.1770539284	1.8661069869999949	face	0.80094408989	1.0	0.8	n/a	n/a	91.0431609154	91.0595459938	92.0421969891	n/a	MFZ_132.jpg	MFZ_132.jpg	MFZ_120.jpg
95.0925850868	1.9483129978000024	shape	0.536697864532	1.0	0.8	92.1157319546	95.040473938	97.0408980846	97.057213068	98.0397720337	n/a	circle.bmp	oval-vertical.bmp	oval-vertical.bmp
98.158135891	1.881661176999998	shape	0.552949905396	1.0	0.8	n/a	n/a	100.039797068	100.056372881	101.034002066	n/a	oval-horizontal.bmp	oval-horizontal.bmp	circle.bmp
101.150563002	1.884651899000005	shape	0.700601100922	1.0	0.8	n/a	n/a	103.035214901	103.052097082	104.038198948	n/a	oval-horizontal.bmp	oval-vertical.bmp	oval-vertical.bmp
104.154994965	1.883366108000004	shape	0.553891897202	1.0	0.8	n/a	n/a	106.038361073	106.054836035	107.037648916	n/a	oval-horizontal.bmp	circle.bmp	circle.bmp
107.153820992	1.8831100459999988	shape	0.838349819183	1.0	0.8	n/a	n/a	109.036931038	109.053893089	110.036743879	n/a	oval-horizontal.bmp	oval-horizontal.bmp	oval-vertical.bmp
110.154045105	1.8828368190000049	shape	0.532639980316	1.0	0.8	n/a	n/a	112.036881924	112.05272603	113.034900904	n/a	circle.bmp	circle.bmp	oval-vertical.bmp
116.10194087	1.932978153999997	face	0.570149183273	1.0	0.8	113.112893105	116.034487009	118.034919024	118.0508461	119.033704042	n/a	FAZ_23.jpg	FAZ_23.jpg	FAX_43.jpg
119.177141905	1.856948137000004	face	0.659680843353	1.0	0.8	n/a	n/a	121.034090042	121.049804926	122.049401999	n/a	26M_FE_O.jpg	26M_FE_O.jpg	27M_FE_O.BMP
122.182816029	1.8633890150000096	face	0.504817962646	1.0	0.8	n/a	n/a	124.046205044	124.062608957	125.048556089	n/a	MFZ_50.jpg	MFZ_50.jpg	MFX_16.jpg
125.213351965	1.8355760569999973	face	0.638900995255	1.0	0.8	n/a	n/a	127.048928022	127.064579964	128.047264099	n/a	10F_AN_O.jpg	09F_AN_O.jpg	09F_AN_O.jpg
128.198539972	1.8495259290000088	face	0.552983999252	1.0	0.8	n/a	n/a	130.048065901	130.064832926	131.047415972	n/a	38M_AN_O.BMP	39M_AN_O.jpg	39M_AN_O.jpg
131.202956915	1.844436169000005	face	0.568809986115	1.0	0.8	n/a	n/a	133.047393084	133.06339097	134.046416998	n/a	FFZ_102.jpg	FFX_130.jpg	FFX_130.jpg
137.096679926	1.948626994999984	shape	0.570197105408	1.0	0.8	134.125727892	137.044956923	139.045306921	139.061572075	140.044079065	n/a	oval-horizontal.bmp	oval-horizontal.bmp	oval-vertical.bmp
140.154216051	1.884207010000012	shape	0.508111953735	1.0	0.8	n/a	n/a	142.038423061	142.054425001	143.037853956	n/a	oval-horizontal.bmp	oval-vertical.bmp	oval-vertical.bmp
143.156065941	1.8875579829999936	shape	0.534966945648	1.0	0.8	n/a	n/a	145.043623924	145.059756994	146.042452097	n/a	circle.bmp	circle.bmp	oval-vertical.bmp
146.157219887	1.8849830629999929	shape	0.467014074326	1.0	0.8	n/a	n/a	148.04220295	148.059202909	149.042150021	n/a	circle.bmp	oval-vertical.bmp	oval-vertical.bmp
149.158657074	1.883453846000009	shape	0.50216794014	1.0	0.8	n/a	n/a	151.04211092	151.059259892	152.041104078	n/a	oval-horizontal.bmp	circle.bmp	circle.bmp
152.158210993	1.882235049999992	shape	0.501204013824	1.0	0.8	n/a	n/a	154.040446043	154.057482958	155.040001869	n/a	oval-horizontal.bmp	oval-horizontal.bmp	circle.bmp
158.129149914	1.9098820680000017	face	0.546218156815	1.0	0.8	155.121183872	158.038894892	160.039031982	160.055356026	161.037870884	n/a	20M_FE_O.jpg	21M_FE_O.jpg	21M_FE_O.jpg
161.204129934	1.844815015999984	face	0.694584131241	1.0	0.8	n/a	n/a	163.04894495	163.065870047	164.049350023	n/a	01F_AN_O.jpg	07F_AN_O.jpg	07F_AN_O.jpg
164.183218002	1.8537008770000227	face	0.570480823517	1.0	0.8	n/a	n/a	166.036918879	166.05311203	167.036257029	n/a	FFX_139.jpg	FFZ_102.jpg	FFZ_102.jpg
167.203387022	1.832980871000018	face	0.772585868835	0.0	0.8	n/a	n/a	169.036367893	169.052628994	170.035753012	n/a	23M_AN_O.jpg	23M_AN_O.jpg	22M_AN_O.jpg
170.169635057	1.8657109739999955	face	0.820501089096	1.0	0.8	n/a	n/a	172.035346031	172.0522089	173.035388947	n/a	MAZ_146.jpg	MAZ_146.jpg	MAX_233.jpg
173.202578068	1.848400830999992	face	1.16752195358	1.0	0.8	n/a	n/a	175.050978899	175.066679001	176.034035921	n/a	15F_FE_O.jpg	15F_FE_O.jpg	16F_FE_O.jpg
179.100909948	1.948293925000001	shape	0.53642988205	1.0	0.8	176.115640879	179.049401999	181.049203873	181.06573391	182.04838109	n/a	oval-horizontal.bmp	oval-vertical.bmp	oval-vertical.bmp
182.164788961	1.883597135999992	shape	0.627832174301	1.0	0.8	n/a	n/a	184.048386097	184.064476013	185.042500973	n/a	circle.bmp	oval-vertical.bmp	oval-vertical.bmp
185.16038394	1.886768101999991	shape	0.503145933151	1.0	0.8	n/a	n/a	187.047152042	187.064261913	188.046906948	n/a	oval-horizontal.bmp	oval-horizontal.bmp	oval-vertical.bmp
188.161503077	1.8855040070000089	shape	0.472009897232	1.0	0.8	n/a	n/a	190.047007084	190.062711	191.04626298	n/a	oval-horizontal.bmp	oval-horizontal.bmp	circle.bmp
191.163048029	1.882780075	shape	0.504322052002	1.0	0.8	n/a	n/a	193.045828104	193.062012911	194.045578957	n/a	circle.bmp	circle.bmp	oval-vertical.bmp
194.162745953	1.8824949259999928	shape	0.634179115295	1.0	0.8	n/a	n/a	196.045240879	196.061125994	197.044666052	n/a	oval-horizontal.bmp	circle.bmp	circle.bmp
200.111098051	1.9323079590000127	face	0.537091970444	1.0	0.8	197.136652946	200.042936087	202.04340601	202.059184074	203.042243958	n/a	FFX_54.jpg	FFX_54.jpg	FAX_51.jpg
203.191646099	1.850708007999998	face	0.645030975342	1.0	0.8	n/a	n/a	205.042354107	205.058597088	206.037255049	n/a	40M_FE_O.BMP	41M_FE_O.jpg	41M_FE_O.jpg
206.203800917	1.836272000999997	face	0.653548002243	1.0	0.8	n/a	n/a	208.040072918	208.057163	209.040524006	n/a	29M_AN_O.jpg	29M_AN_O.jpg	28M_AN_O.jpg
209.188554049	1.852272986999992	face	0.589335918427	1.0	0.8	n/a	n/a	211.040827036	211.057106018	212.040303946	n/a	FFZ_18.jpg	FFZ_29.jpg	FFZ_29.jpg
212.208700895	1.8313660620000007	face	0.63362622261	1.0	0.8	n/a	n/a	214.040066957	214.056767941	215.038903952	n/a	19F_AN_O.jpg	19F_AN_O.jpg	09F_AN_O.jpg
215.19077301	1.8483328820000224	face	0.984629869461	1.0	0.8	n/a	n/a	217.039105892	217.055257082	218.038094997	n/a	MFZ_132.jpg	MFZ_7.jpg	MFZ_7.jpg
221.088653088	1.948431015000012	shape	0.570910930634	1.0	0.8	218.123919964	221.037009001	223.037084103	223.053344965	224.0362041	n/a	circle.bmp	oval-vertical.bmp	oval-vertical.bmp
224.152484894	1.8842229839999904	shape	0.577891111374	1.0	0.8	n/a	n/a	226.036707878	226.0524261	227.047754049	n/a	oval-horizontal.bmp	oval-horizontal.bmp	circle.bmp
227.168449879	1.8658070559999944	shape	0.504954099655	1.0	0.8	n/a	n/a	229.034256935	229.050407887	230.033735991	n/a	oval-horizontal.bmp	oval-vertical.bmp	oval-vertical.bmp
230.183049917	1.851713181000008	shape	0.521714925766	1.0	0.8	n/a	n/a	232.034763098	232.051261902	233.049803972	n/a	oval-horizontal.bmp	circle.bmp	circle.bmp
233.184801102	1.864830970000014	shape	0.53582406044	1.0	0.8	n/a	n/a	235.049632072	235.065603018	236.048049927	n/a	oval-horizontal.bmp	oval-horizontal.bmp	oval-vertical.bmp
236.184763908	1.864458084000006	shape	0.565807104111	1.0	0.8	n/a	n/a	238.049221992	238.065063953	239.048398972	n/a	circle.bmp	circle.bmp	oval-vertical.bmp
242.139884949	1.906697988000019	face	0.578169107437	1.0	0.8	239.143085003	242.047312021	244.046582937	244.062736988	245.045232058	n/a	20M_FE_O.jpg	21M_FE_O.jpg	21M_FE_O.jpg
245.223630905	1.8215219980000088	face	0.559615135193	1.0	0.8	n/a	n/a	247.045152903	247.061903954	248.041671038	n/a	07F_AN_O.jpg	07F_AN_O.jpg	01F_AN_O.jpg
248.192018032	1.8521909709999989	face	0.592177152634	1.0	0.8	n/a	n/a	250.044209003	250.060940027	251.045111895	n/a	FFZ_102.jpg	FFZ_102.jpg	FFX_139.jpg
251.211090088	1.8336999420000093	face	0.554282188416	1.0	0.8	n/a	n/a	253.04479003	253.06052494	254.044414997	n/a	22M_AN_O.jpg	23M_AN_O.jpg	23M_AN_O.jpg
254.194838047	1.848500013000006	face	0.619547128677	1.0	0.8	n/a	n/a	256.04333806	256.061193943	257.043479919	n/a	MAX_233.jpg	MAZ_146.jpg	MAZ_146.jpg
257.210139036	1.832233905999999	face	0.571824073792	0.0	0.8	n/a	n/a	259.042372942	259.059547901	260.042412996	n/a	15F_FE_O.jpg	15F_FE_O.jpg	16F_FE_O.jpg
263.090588093	1.9509689810000168	shape	0.779148101807	1.0	0.8	260.132297993	263.041019917	265.041557074	265.057732105	266.040314913	n/a	oval-horizontal.bmp	oval-horizontal.bmp	oval-vertical.bmp
266.16782093	1.8678531649999848	shape	0.601032018661	1.0	0.8	n/a	n/a	268.035674095	268.052212	269.035415888	n/a	oval-horizontal.bmp	oval-vertical.bmp	oval-vertical.bmp
269.156116962	1.883315087000028	shape	0.473124980927	1.0	0.8	n/a	n/a	271.039432049	271.055907965	272.038878918	n/a	circle.bmp	circle.bmp	oval-vertical.bmp
272.17174387	1.8672711849999928	shape	0.453456878662	1.0	0.8	n/a	n/a	274.039015055	274.055425882	275.03835988	n/a	circle.bmp	oval-vertical.bmp	oval-vertical.bmp
275.172930002	1.8650810720000093	shape	0.502683877945	1.0	0.8	n/a	n/a	277.038011074	277.054244041	278.037065029	n/a	oval-horizontal.bmp	circle.bmp	circle.bmp
278.172188997	1.8636479380000424	shape	0.516960144043	1.0	0.8	n/a	n/a	280.035836935	280.053373098	281.036168098	n/a	oval-horizontal.bmp	oval-horizontal.bmp	circle.bmp
284.102493048	1.9327268600000025	face	0.486763000488	1.0	0.8	281.129762888	284.034935951	286.035219908	286.05133605	287.034065962	n/a	FFZ_18.jpg	FAZ_129.jpg	FAZ_129.jpg
287.212841988	1.8327009669999936	face	0.719783067703	1.0	0.8	n/a	n/a	289.045542955	289.062423944	290.033394098	n/a	20M_FE_O.jpg	24M_FE_O.jpg	24M_FE_O.jpg
290.179857016	1.8701970569999844	face	0.571649074554	1.0	0.8	n/a	n/a	292.050054073	292.066408873	293.049243927	n/a	FAZ_23.jpg	FAX_25.jpg	FAX_25.jpg
293.215682983	1.8339838989999748	face	0.638427019119	1.0	0.8	n/a	n/a	295.049666882	295.065983057	296.048907042	n/a	33M_FE_O.jpg	33M_FE_O.jpg	35M_FE_O.jpg
296.532339096	1.516252995000002	face	0.652168989182	1.0	0.8	n/a	n/a	298.048592091	298.064949989	299.04767108	n/a	01F_AN_O.jpg	01F_AN_O.jpg	02F_AN_O.jpg
299.184304953	1.863223075000008	face	0.633201122284	1.0	0.8	n/a	n/a	301.047528028	301.063746929	302.046087027	n/a	MFZ_132.jpg	MFZ_132.jpg	MFZ_120.jpg
305.096464872	1.9485111239999924	shape	0.560552835464	1.0	0.8	302.1376791	305.045693874	307.044975996	307.062598944	308.044744968	n/a	oval-horizontal.bmp	oval-vertical.bmp	oval-vertical.bmp
308.173892021	1.8706848620000187	shape	0.490597009659	1.0	0.8	n/a	n/a	310.044576883	310.061078072	311.04014802	n/a	circle.bmp	oval-vertical.bmp	oval-vertical.bmp
311.175443888	1.86853909499996	shape	0.573323011398	1.0	0.8	n/a	n/a	313.043982983	313.060285091	314.043200016	n/a	oval-horizontal.bmp	oval-horizontal.bmp	oval-vertical.bmp
314.17575407	1.8671579360000123	shape	0.538535118103	1.0	0.8	n/a	n/a	316.042912006	316.058876038	317.042562008	n/a	oval-horizontal.bmp	oval-horizontal.bmp	circle.bmp
317.177728891	1.8644211299999824	shape	0.435205221176	1.0	0.8	n/a	n/a	319.042150021	319.058775902	320.041402102	n/a	circle.bmp	circle.bmp	oval-vertical.bmp
320.176471949	1.8635799879999693	shape	0.583270072937	1.0	0.8	n/a	n/a	322.040051937	322.056855917	323.03994298	n/a	oval-horizontal.bmp	circle.bmp	circle.bmp
326.131452084	1.9183638090000272	face	0.579209089279	1.0	0.8	323.135799885	326.038346052	328.049815893	328.065088987	329.038363934	n/a	17F_FE_O.jpg	18F_FE_O.jpg	18F_FE_O.jpg
329.217647076	1.820680856000024	face	0.558411836624	1.0	0.8	n/a	n/a	331.038327932	331.054527998	332.033940077	n/a	42M_AN_O.jpg	43M_AN_O.jpg	43M_AN_O.jpg
332.201632977	1.8360519400000044	face	0.524019002914	1.0	0.8	n/a	n/a	334.037684917	334.054002047	335.036751986	n/a	31M_FE_O.jpg	31M_FE_O.jpg	32M_FE_O.jpg
335.186848879	1.850359201000004	face	0.487601995468	1.0	0.8	n/a	n/a	337.03720808	337.053428888	338.036061049	n/a	FAZ_212.jpg	FFZ_236.jpg	FFZ_236.jpg
338.204222918	1.8317060469999549	face	0.551826000214	1.0	0.8	n/a	n/a	340.035928965	340.052411079	341.035083055	n/a	06F_FE_O.jpg	06F_FE_O.jpg	08F_FE_O.jpg
341.186449051	1.848148822999974	face	0.636635780334	1.0	0.8	n/a	n/a	343.034597874	343.051475048	344.034012079	n/a	MAZ_128.jpg	MAZ_128.jpg	MAX_39.jpg
347.100766897	1.9494681359999504	shape	0.776909828186	1.0	0.8	344.131222963	347.049645901	349.050235033	349.065032959	350.048737049	n/a	circle.bmp	oval-vertical.bmp	oval-vertical.bmp
350.184365988	1.860440015999984	shape	0.452701091766	1.0	0.8	n/a	n/a	352.044806004	352.060931921	353.046962976	n/a	oval-horizontal.bmp	oval-horizontal.bmp	circle.bmp
353.179630995	1.8682720659999743	shape	0.556324005127	1.0	0.8	n/a	n/a	355.047903061	355.064585924	356.04734087	n/a	oval-horizontal.bmp	oval-vertical.bmp	oval-vertical.bmp
356.180845022	1.8668770789999485	shape	0.620364189148	1.0	0.8	n/a	n/a	358.047722101	358.064133883	359.04728508	n/a	oval-horizontal.bmp	circle.bmp	circle.bmp
359.179877996	1.866205930999968	shape	0.803483963013	1.0	0.8	n/a	n/a	361.046083927	361.063015938	362.045871019	n/a	oval-horizontal.bmp	oval-horizontal.bmp	oval-vertical.bmp
362.180563927	1.864688158000036	shape	0.570947885513	1.0	0.8	n/a	n/a	364.045252085	364.062023878	365.044322014	n/a	circle.bmp	circle.bmp	oval-vertical.bmp
368.102463961	1.9403951159999904	face	0.460225105286	1.0	0.8	365.142976999	368.04361105	370.042859077	370.059880972	371.037581921	n/a	FFZ_18.jpg	FAZ_129.jpg	FAZ_129.jpg
371.222682953	1.815693140000008	face	0.685820817947	1.0	0.8	n/a	n/a	373.038376093	373.054739952	374.04185009	n/a	20M_FE_O.jpg	24M_FE_O.jpg	24M_FE_O.jpg
374.207268	1.834703922000017	face	0.557713985443	1.0	0.8	n/a	n/a	376.041971922	376.058146954	377.041213036	n/a	FAZ_23.jpg	FAX_25.jpg	FAX_25.jpg
377.224926949	1.815926074999993	face	0.554291963577	1.0	0.8	n/a	n/a	379.040853024	379.058593035	380.040220976	n/a	33M_FE_O.jpg	33M_FE_O.jpg	35M_FE_O.jpg
380.226305008	1.814418077000028	face	0.630330085754	1.0	0.8	n/a	n/a	382.040723085	382.057085037	383.039357901	n/a	01F_AN_O.jpg	01F_AN_O.jpg	02F_AN_O.jpg
383.190021038	1.8491170409999995	face	0.503111839294	1.0	0.8	n/a	n/a	385.039138079	385.055660963	386.037921906	394.435204983	MFZ_132.jpg	MFZ_132.jpg	MFZ_120.jpg
