onset	duration	trial_type	response_time	accuracy_binarized	tr_seconds	cueStartTime	cueEndTime	trialEndTime	fixStartTime	fixEndTime	runEndTime	stimLeft	stimTop	stimRight
11.09523892402649	1.9692471027374268	shape	n/a	0.0	0.8	8.053534030914307	11.04734706878662	13.064486026763916	13.094955921173096	14.097951889038086	n/a	oval-horizontal.bmp	oval-horizontal.bmp	oval-vertical.bmp
14.195281982421877	1.902354955673216	shape	1.03296589851	1.0	0.8	n/a	n/a	16.097636938095093	16.12829899787903	17.09785008430481	n/a	oval-horizontal.bmp	oval-vertical.bmp	oval-vertical.bmp
17.178503036499023	1.902570009231568	shape	0.799430131912	1.0	0.8	n/a	n/a	19.08107304573059	19.11168003082276	20.08127498626709	n/a	circle.bmp	circle.bmp	oval-vertical.bmp
20.16177988052368	1.935840129852295	shape	0.832310914993	1.0	0.8	n/a	n/a	22.097620010375977	22.128357887268063	23.09796094894409	n/a	circle.bmp	oval-vertical.bmp	oval-vertical.bmp
23.178524017333984	1.9028358459472656	shape	1.13272404671	1.0	0.8	n/a	n/a	25.08135986328125	25.11171293258667	26.081312894821167	n/a	oval-horizontal.bmp	circle.bmp	circle.bmp
26.161853075027462	1.9358329772949248	shape	0.932185173035	1.0	0.8	n/a	n/a	28.097686052322388	28.12854504585266	29.09799289703369	n/a	oval-horizontal.bmp	oval-horizontal.bmp	circle.bmp
32.1453959941864	1.935236930847168	face	0.966289043427	1.0	0.8	29.14511108398437	32.080705881118774	34.08063292503357	34.111753940582275	35.08158588409424	n/a	FAZ_23.jpg	FAZ_23.jpg	FAX_43.jpg
35.21199703216553	1.8689939975738523	face	1.16557097435	1.0	0.8	n/a	n/a	37.08099102973938	37.111814975738525	38.08131790161133	n/a	26M_FE_O.jpg	26M_FE_O.jpg	27M_FE_O.BMP
38.19582200050354	1.90145206451416	face	0.966033935547	1.0	0.8	n/a	n/a	40.0972740650177	40.12842798233032	41.09810400009155	n/a	MFX_16.jpg	MFZ_50.jpg	MFZ_50.jpg
41.22889494895935	1.868591070175171	face	1.16564702988	1.0	0.8	n/a	n/a	43.09748601913452	43.12847590446472	44.09826707839966	n/a	09F_AN_O.jpg	09F_AN_O.jpg	10F_AN_O.jpg
44.22864508628845	1.8686468601226809	face	1.63266205788	1.0	0.8	n/a	n/a	46.09729194641113	46.128504037857056	47.09828805923462	n/a	38M_AN_O.BMP	39M_AN_O.jpg	39M_AN_O.jpg
47.21206593513489	1.869025945663452	face	1.19939208031	1.0	0.8	n/a	n/a	49.08109188079834	49.11193108558655	50.08141589164734	n/a	FFZ_102.jpg	FFX_130.jpg	FFX_130.jpg
53.14535689353943	1.936586141586304	shape	0.666670799255	1.0	0.8	50.12693405151367	53.08096098899841	55.08194303512573	55.11190605163574	56.08147192001343	n/a	oval-horizontal.bmp	oval-vertical.bmp	oval-vertical.bmp
56.16220808029175	1.935748815536499	shape	0.499001979828	1.0	0.8	n/a	n/a	58.09795689582825	58.12857103347778	59.09830689430237	n/a	circle.bmp	oval-vertical.bmp	oval-vertical.bmp
59.19563007354736	1.9026658535003664	shape	0.533043861389	0.0	0.8	n/a	n/a	61.09829592704773	61.12861490249634	62.09816288948059	n/a	oval-horizontal.bmp	oval-horizontal.bmp	oval-vertical.bmp
62.17882800102234	1.90241289138794	shape	0.832912921906	1.0	0.8	n/a	n/a	64.08124089241028	64.11196398735046	65.08163094520569	n/a	oval-horizontal.bmp	oval-horizontal.bmp	circle.bmp
65.16228795051575	1.9355740547180176	shape	1.13183403015	1.0	0.8	n/a	n/a	67.09786200523376	67.12881207466125	68.09820699691772	n/a	circle.bmp	circle.bmp	oval-vertical.bmp
68.1788969039917	1.902351140975952	shape	1.03288316727	1.0	0.8	n/a	n/a	70.08124804496765	70.11199307441711	71.08160185813904	n/a	oval-horizontal.bmp	circle.bmp	circle.bmp
74.19594192504883	1.901522159576416	face	n/a	0.0	0.8	71.12793207168579	74.0976550579071	76.09746408462524	76.12869596481323	77.09829306602478	n/a	03F_FE_O.jpg	05F_FE_O.jpg	05F_FE_O.jpg
77.21250486373901	1.868391990661621	face	0.932557106018	1.0	0.8	n/a	n/a	79.08089685440063	79.11227798461914	80.08169507980347	n/a	FAZ_32.jpg	FAZ_32.jpg	FAX_45.jpg
80.19580292701721	1.901694059371948	face	1.76563692093	0.0	0.8	n/a	n/a	82.09749698638916	82.12874102592468	83.09829592704773	n/a	MAZ_128.jpg	MAZ_101.jpg	MAZ_101.jpg
83.2292149066925	1.8688220977783203	face	1.06597304344	1.0	0.8	n/a	n/a	85.09803700447083	85.12888407707214	86.09842205047607	n/a	11F_AN_O.jpg	11F_AN_O.jpg	12F_AN_O.jpg
86.2290289402008	1.8685150146484373	face	1.29916000366	1.0	0.8	n/a	n/a	88.09754395484924	88.12876200675964	89.09845399856567	n/a	26M_FE_O.jpg	33M_FE_O.jpg	33M_FE_O.jpg
89.21246385574341	1.86846017837523	face	1.26559305191	1.0	0.8	n/a	n/a	91.08092403411864	91.11235189437866	92.08169388771056	n/a	MFZ_132.jpg	MFZ_132.jpg	MFZ_120.jpg
95.16269207000732	1.9354569911956787	shape	0.832635879517	1.0	0.8	92.12919092178343	95.09795093536376	97.098149061203	97.12884593009947	98.09842896461488	n/a	circle.bmp	oval-vertical.bmp	oval-vertical.bmp
98.1790280342102	1.9024739265441888	shape	1.0995900631	1.0	0.8	n/a	n/a	100.0815019607544	100.11216497421265	101.08171892166138	n/a	oval-horizontal.bmp	oval-horizontal.bmp	circle.bmp
101.16233801841736	1.935834884643555	shape	1.33205008507	1.0	0.8	n/a	n/a	103.09817290306091	103.1289930343628	104.09849905967712	n/a	oval-horizontal.bmp	oval-vertical.bmp	oval-vertical.bmp
104.17910289764404	1.9022910594940183	shape	n/a	0.0	0.8	n/a	n/a	106.08139395713806	106.11224007606506	107.08178091049194	n/a	oval-horizontal.bmp	circle.bmp	circle.bmp
107.16237092018127	1.9357440471649312	shape	n/a	0.0	0.8	n/a	n/a	109.0981149673462	109.12887501716614	110.09846305847168	n/a	oval-horizontal.bmp	oval-horizontal.bmp	oval-vertical.bmp
110.17907691001892	1.9023959636688232	shape	0.866189956665	1.0	0.8	n/a	n/a	112.08147287368774	112.11223006248474	113.08178687095642	n/a	circle.bmp	circle.bmp	oval-vertical.bmp
116.16255497932434	1.935316085815416	face	0.865569114685	1.0	0.8	113.13028597831726	116.09787893295288	118.09787106513976	118.1288878917694	119.0985279083252	n/a	FAZ_23.jpg	FAZ_23.jpg	FAX_43.jpg
119.22918891906738	1.868589162826538	face	1.3327190876	1.0	0.8	n/a	n/a	121.09777808189392	121.12893199920654	122.09852600097656	n/a	26M_FE_O.jpg	26M_FE_O.jpg	27M_FE_O.BMP
122.21239805221558	1.8687229156494285	face	0.799060106277	1.0	0.8	n/a	n/a	124.081120967865	124.11227607727052	125.08184599876404	n/a	MFZ_50.jpg	MFZ_50.jpg	MFX_16.jpg
125.21252703666688	1.869024038314791	face	1.56599903107	1.0	0.8	n/a	n/a	127.08155107498168	127.11236500740053	128.08214592933655	n/a	10F_AN_O.jpg	09F_AN_O.jpg	09F_AN_O.jpg
128.22917985916138	1.868739128112793	face	1.1324031353	1.0	0.8	n/a	n/a	130.09791898727417	130.12905097007751	131.09860491752625	n/a	38M_AN_O.BMP	39M_AN_O.jpg	39M_AN_O.jpg
131.2127718925476	1.8687291145324707	face	1.53258991241	1.0	0.8	n/a	n/a	133.08150100708008	133.11237502098083	134.08183407783508	n/a	FFZ_102.jpg	FFX_130.jpg	FFX_130.jpg
137.14578986167908	1.935845136642456	shape	n/a	0.0	0.8	134.13119506835938	137.09794688224792	139.08163499832153	139.1123309135437	140.08193588256836	n/a	oval-horizontal.bmp	oval-horizontal.bmp	oval-vertical.bmp
140.17935800552368	1.902467966079712	shape	1.09953904152	1.0	0.8	n/a	n/a	142.0818259716034	142.11235404014587	143.08193492889404	n/a	oval-horizontal.bmp	oval-vertical.bmp	oval-vertical.bmp
143.1625189781189	1.936194896697998	shape	0.76528096199	1.0	0.8	n/a	n/a	145.0987138748169	145.12904000282288	146.0654649734497	n/a	circle.bmp	circle.bmp	oval-vertical.bmp
146.16263890266418	1.935790061950684	shape	0.831984043121	1.0	0.8	n/a	n/a	148.09842896461487	148.1290168762207	149.06533885002136	n/a	circle.bmp	oval-vertical.bmp	oval-vertical.bmp
149.16251492500305	1.9358041286468504	shape	0.9320499897	1.0	0.8	n/a	n/a	151.0983190536499	151.1290090084076	152.06551098823547	n/a	oval-horizontal.bmp	circle.bmp	circle.bmp
152.1627058982849	1.935796976089477	shape	0.865396022797	1.0	0.8	n/a	n/a	154.0985028743744	154.12906289100647	155.0654969215393	n/a	oval-horizontal.bmp	oval-horizontal.bmp	circle.bmp
158.17938899993896	1.9025909900665283	face	1.79968214035	1.0	0.8	155.12349796295166	158.08152389526367	160.0819799900055	160.11242604255676	161.08195090293884	n/a	20M_FE_O.jpg	21M_FE_O.jpg	21M_FE_O.jpg
161.21255898475647	1.8686199188232424	face	1.09906506538	1.0	0.8	n/a	n/a	163.0811789035797	163.11240887641907	164.0822629928589	n/a	01F_AN_O.jpg	07F_AN_O.jpg	07F_AN_O.jpg
164.21271204948425	1.869022846221924	face	1.23232507706	1.0	0.8	n/a	n/a	166.08173489570618	166.1124849319458	167.08199286460876	n/a	FFX_139.jpg	FFZ_102.jpg	FFZ_102.jpg
167.21274495124817	1.8686320781708048	face	1.06567597389	1.0	0.8	n/a	n/a	169.08137702941897	169.11249995231628	170.0822789669037	n/a	23M_AN_O.jpg	23M_AN_O.jpg	22M_AN_O.jpg
170.19624185562134	1.902074098587036	face	0.899358034134	1.0	0.8	n/a	n/a	172.09831595420837	172.12927293777466	173.06551384925842	n/a	MAZ_146.jpg	MAZ_146.jpg	MAX_233.jpg
173.21297407150269	1.8685498237609863	face	n/a	0.0	0.8	n/a	n/a	175.08152389526367	175.11262106895447	176.0823268890381	n/a	15F_FE_O.jpg	15F_FE_O.jpg	16F_FE_O.jpg
179.146409034729	1.935473918914795	shape	1.70038700104	1.0	0.8	176.1430640220642	179.09815096855164	181.0818829536438	181.1124770641327	182.082330942154	n/a	oval-horizontal.bmp	oval-vertical.bmp	oval-vertical.bmp
182.1794879436493	1.902225971221896	shape	0.899816036224	1.0	0.8	n/a	n/a	184.0817139148712	184.1125018596649	185.0822138786316	n/a	circle.bmp	oval-vertical.bmp	oval-vertical.bmp
185.1793429851532	1.9026329517364504	shape	n/a	0.0	0.8	n/a	n/a	187.08197593688965	187.11265087127688	188.08226490020752	n/a	oval-horizontal.bmp	oval-horizontal.bmp	oval-vertical.bmp
188.1795010566712	1.902266025543241	shape	n/a	0.0	0.8	n/a	n/a	190.0817670822144	190.11271905899048	191.0820279121399	n/a	oval-horizontal.bmp	oval-horizontal.bmp	circle.bmp
191.17957997322085	1.902329921722384	shape	n/a	0.0	0.8	n/a	n/a	193.08190989494324	193.112685918808	194.08230900764465	n/a	circle.bmp	circle.bmp	oval-vertical.bmp
194.1795470714569	1.902638912200928	shape	0.899752140045	1.0	0.8	n/a	n/a	196.08218598365784	196.1126298904419	197.08220291137687	n/a	oval-horizontal.bmp	circle.bmp	circle.bmp
200.17955899238584	1.901862859726009	face	1.19993305206	1.0	0.8	197.14097595214844	200.0982449054718	202.08142185211184	202.11270093917847	203.0821058750153	n/a	FFX_54.jpg	FFX_54.jpg	FAX_51.jpg
203.2130069732666	1.8688540458678915	face	0.932533979416	1.0	0.8	n/a	n/a	205.0818610191345	205.11260104179385	206.08221006393435	n/a	40M_FE_O.BMP	41M_FE_O.jpg	41M_FE_O.jpg
206.21287608146667	1.86897087097168	face	1.2656929493	1.0	0.8	n/a	n/a	208.08184695243835	208.1126599311829	209.0821218490601	n/a	29M_AN_O.jpg	29M_AN_O.jpg	28M_AN_O.jpg
209.1965398788452	1.901538133621244	face	1.09893703461	1.0	0.8	n/a	n/a	211.09807801246643	211.12924790382385	212.06554293632507	n/a	FFZ_18.jpg	FFZ_29.jpg	FFZ_29.jpg
212.1962599754333	1.901769876480131	face	n/a	0.0	0.8	n/a	n/a	214.09802985191345	214.1292600631714	215.06550002098083	n/a	19F_AN_O.jpg	19F_AN_O.jpg	09F_AN_O.jpg
215.1796419620514	1.9017899036407184	face	0.698911905289	1.0	0.8	n/a	n/a	217.0814318656921	217.11262488365173	218.08226203918457	n/a	MFZ_132.jpg	MFZ_7.jpg	MFZ_7.jpg
221.14609599113464	1.936411857604952	shape	0.833331823349	1.0	0.8	218.13472604751587	221.0983560085297	223.0825078487396	223.1126799583435	224.0823810100556	n/a	circle.bmp	oval-vertical.bmp	oval-vertical.bmp
224.1796510219574	1.902312994003296	shape	0.899614095688	1.0	0.8	n/a	n/a	226.0819640159607	226.11263990402225	227.08227586746216	n/a	oval-horizontal.bmp	oval-horizontal.bmp	circle.bmp
227.1795690059662	1.9025099277496624	shape	0.999742031097	1.0	0.8	n/a	n/a	229.08207893371585	229.1126909255981	230.0824098587036	n/a	oval-horizontal.bmp	oval-vertical.bmp	oval-vertical.bmp
230.17967891693115	1.9022319316864007	shape	0.932963132858	1.0	0.8	n/a	n/a	232.08191084861755	232.1126680374145	233.0822560787201	n/a	oval-horizontal.bmp	circle.bmp	circle.bmp
233.1796898841858	1.902804136276245	shape	1.79947495461	1.0	0.8	n/a	n/a	235.08249402046204	235.1128280162812	236.08242988586423	n/a	oval-horizontal.bmp	oval-horizontal.bmp	oval-vertical.bmp
236.1797058582306	1.9022622108459188	shape	1.26617598534	1.0	0.8	n/a	n/a	238.0819680690765	238.11271405220032	239.0823628902436	n/a	circle.bmp	circle.bmp	oval-vertical.bmp
242.1966049671173	1.9017789363861368	face	1.3331758976	1.0	0.8	239.1420419216156	242.0983150005341	244.09838390350345	244.12938904762268	245.06579208374023	n/a	20M_FE_O.jpg	21M_FE_O.jpg	21M_FE_O.jpg
245.21305394172668	1.868586063385009	face	0.898980855942	1.0	0.8	n/a	n/a	247.0816400051117	247.11275601387024	248.0824999809265	n/a	07F_AN_O.jpg	07F_AN_O.jpg	01F_AN_O.jpg
248.21303796768188	1.868483066558838	face	1.13221216202	1.0	0.8	n/a	n/a	250.08152103424072	250.11274194717407	251.0823190212249	n/a	FFZ_102.jpg	FFZ_102.jpg	FFX_139.jpg
251.2130770683289	1.8685679435729408	face	1.79936122894	1.0	0.8	n/a	n/a	253.08164501190183	253.11278200149536	254.08254599571228	n/a	22M_AN_O.jpg	23M_AN_O.jpg	23M_AN_O.jpg
254.19651007652283	1.9017128944396973	face	1.43255496025	1.0	0.8	n/a	n/a	256.0982229709625	256.1294379234314	257.06576800346375	n/a	MAX_233.jpg	MAZ_146.jpg	MAZ_146.jpg
257.21330285072327	1.8683512210845947	face	1.49919009209	1.0	0.8	n/a	n/a	259.08165407180786	259.1127998828888	260.08242106437683	n/a	15F_FE_O.jpg	15F_FE_O.jpg	16F_FE_O.jpg
263.1465148925781	1.936143159866333	shape	0.900007009506	1.0	0.8	260.13965487480164	263.09843707084656	265.08265805244446	265.1128149032593	266.08247590065	n/a	oval-horizontal.bmp	oval-horizontal.bmp	oval-vertical.bmp
266.17984104156494	1.902257919311524	shape	1.3661839962	1.0	0.8	n/a	n/a	268.08209896087646	268.1129939556122	269.0824880599976	n/a	oval-horizontal.bmp	oval-vertical.bmp	oval-vertical.bmp
269.1798689365387	1.902315139770508	shape	1.1995100975	1.0	0.8	n/a	n/a	271.0821840763092	271.11283898353577	272.08246088027954	n/a	circle.bmp	circle.bmp	oval-vertical.bmp
272.1798629760742	1.9022278785705569	shape	1.09946703911	1.0	0.8	n/a	n/a	274.0820908546448	274.11306500434875	275.08254194259644	n/a	circle.bmp	oval-vertical.bmp	oval-vertical.bmp
275.1797568798065	1.90248703956604	shape	0.899753093719	1.0	0.8	n/a	n/a	277.08224391937256	277.1128828525543	278.0825660228729	n/a	oval-horizontal.bmp	circle.bmp	circle.bmp
278.17987990379333	1.902347087860108	shape	1.1995279789	1.0	0.8	n/a	n/a	280.08222699165344	280.11285305023193	281.08259892463684	n/a	oval-horizontal.bmp	oval-horizontal.bmp	circle.bmp
284.16323804855347	1.9351890087127688	face	1.53216981888	1.0	0.8	281.1409859657288	284.09856390953064	286.09842705726624	286.1295700073242	287.06593799591064	n/a	FFZ_18.jpg	FAZ_129.jpg	FAZ_129.jpg
287.21339201927185	1.868790864944458	face	1.79899907112	1.0	0.8	n/a	n/a	289.0821828842163	289.1129779815674	290.0826790332794	n/a	20M_FE_O.jpg	24M_FE_O.jpg	24M_FE_O.jpg
290.21373295784	1.8679869174956707	face	1.46562695503	1.0	0.8	n/a	n/a	292.0817198753357	292.1129059791565	293.08265495300293	n/a	FAZ_23.jpg	FAX_25.jpg	FAX_25.jpg
293.2301480770111	1.8686859607697104	face	1.49897384644	1.0	0.8	n/a	n/a	295.0988340377808	295.12966108322144	296.06592297554016	n/a	33M_FE_O.jpg	33M_FE_O.jpg	35M_FE_O.jpg
296.21326303482056	1.868440866470337	face	1.36571884155	1.0	0.8	n/a	n/a	298.0817039012909	298.1129379272461	299.0826749801636	n/a	01F_AN_O.jpg	01F_AN_O.jpg	02F_AN_O.jpg
299.21343302726746	1.8682339191436768	face	n/a	0.0	0.8	n/a	n/a	301.08166694641113	301.1129729747772	302.08256697654724	n/a	MFZ_132.jpg	MFZ_132.jpg	MFZ_120.jpg
305.1301009654999	1.935594081878662	shape	0.666922807693	1.0	0.8	302.1389000415802	305.0654330253601	307.06569504737854	307.096431016922	308.0658359527588	n/a	oval-horizontal.bmp	oval-vertical.bmp	oval-vertical.bmp
308.16335105896	1.9022438526153	shape	0.731807947159	1.0	0.8	n/a	n/a	310.0655949115753	310.0963079929352	311.06589102745056	n/a	circle.bmp	oval-vertical.bmp	oval-vertical.bmp
311.1631600856781	1.902511835098324	shape	1.06536388397	1.0	0.8	n/a	n/a	313.0656719207764	313.0963649749756	314.0659029483795	n/a	oval-horizontal.bmp	oval-horizontal.bmp	oval-vertical.bmp
314.163341999054	1.90229701995844	shape	1.36537909508	1.0	0.8	n/a	n/a	316.06563901901245	316.0963559150696	317.06591296195984	n/a	oval-horizontal.bmp	oval-horizontal.bmp	circle.bmp
317.1633780002594	1.9021959304810137	shape	1.79851293564	1.0	0.8	n/a	n/a	319.0655739307404	319.0963759422302	320.0659348964691	n/a	circle.bmp	circle.bmp	oval-vertical.bmp
320.1633548736572	1.902194023132324	shape	n/a	0.0	0.8	n/a	n/a	322.06554889678955	322.0963599681854	323.06603598594666	n/a	oval-horizontal.bmp	circle.bmp	circle.bmp
326.18034291267395	1.90161395072937	face	1.53296113014	1.0	0.8	323.1232509613037	326.08204102516174	328.0819568634033	328.1130700111389	329.0826508998871	n/a	17F_FE_O.jpg	18F_FE_O.jpg	18F_FE_O.jpg
329.229896068573	1.8686459064483645	face	0.732367992401	1.0	0.8	n/a	n/a	331.09854197502136	331.1297519207001	332.06597089767456	n/a	42M_AN_O.jpg	43M_AN_O.jpg	43M_AN_O.jpg
332.2134699821472	1.8683760166168213	face	0.865569829941	1.0	0.8	n/a	n/a	334.08184599876404	334.113116979599	335.08270287513733	n/a	31M_FE_O.jpg	31M_FE_O.jpg	32M_FE_O.jpg
335.19689202308655	1.9016499519348145	face	0.765604019165	1.0	0.8	n/a	n/a	337.09854197502136	337.12978506088257	338.06597900390625	n/a	FAZ_212.jpg	FFZ_236.jpg	FFZ_236.jpg
338.21367287635803	1.86822509765625	face	1.09887099266	1.0	0.8	n/a	n/a	340.0818979740143	340.1131110191345	341.08287286758423	n/a	06F_FE_O.jpg	06F_FE_O.jpg	08F_FE_O.jpg
341.2135169506073	1.8684260845184328	face	1.06561994553	1.0	0.8	n/a	n/a	343.08194303512573	343.11314392089844	344.08272886276245	n/a	MAZ_128.jpg	MAZ_128.jpg	MAX_39.jpg
347.1132950782776	1.936738967895508	shape	0.766923189163	1.0	0.8	344.14064502716064	347.06548404693604	349.0500340461731	349.07996702194214	350.0827419757843	n/a	circle.bmp	oval-vertical.bmp	oval-vertical.bmp
350.1802489757538	1.90255093574524	shape	0.866270065308	1.0	0.8	n/a	n/a	352.082799911499	352.11333107948303	353.08280992507935	n/a	oval-horizontal.bmp	oval-horizontal.bmp	circle.bmp
353.1802270412445	1.9022719860076904	shape	0.899571895599	1.0	0.8	n/a	n/a	355.0824990272522	355.1131920814514	356.0827548503876	n/a	oval-horizontal.bmp	oval-vertical.bmp	oval-vertical.bmp
356.1802408695221	1.9025321006774905	shape	1.23288607597	1.0	0.8	n/a	n/a	358.0827729701996	358.1132290363312	359.0829870700836	n/a	oval-horizontal.bmp	circle.bmp	circle.bmp
359.1967399120331	1.86914610862732	shape	1.59980392456	1.0	0.8	n/a	n/a	361.0658860206604	361.0965559482575	362.0661358833313	n/a	oval-horizontal.bmp	oval-horizontal.bmp	oval-vertical.bmp
362.1635580062866	1.902268886566162	shape	n/a	0.0	0.8	n/a	n/a	364.0658268928528	364.0965690612793	365.06636905670166	n/a	circle.bmp	circle.bmp	oval-vertical.bmp
368.1302618980408	1.93548417091364	face	0.699601888657	1.0	0.8	365.1341209411621	368.0655720233917	370.06574606895447	370.0966000556946	371.066339969635	n/a	FFZ_18.jpg	FAZ_129.jpg	FAZ_129.jpg
371.21393394470215	1.868082046508732	face	1.59921002388	1.0	0.8	n/a	n/a	373.0820159912109	373.1132688522339	374.08291697502136	n/a	20M_FE_O.jpg	24M_FE_O.jpg	24M_FE_O.jpg
374.1968629360199	1.8689930438994795	face	0.699445009232	1.0	0.8	n/a	n/a	376.0658559799194	376.0967779159546	377.0661799907684	n/a	FAZ_23.jpg	FAX_25.jpg	FAX_25.jpg
377.2135698795319	1.868450164794865	face	0.899252891541	1.0	0.8	n/a	n/a	379.0820200443268	379.1132938861847	380.0829429626465	n/a	33M_FE_O.jpg	33M_FE_O.jpg	35M_FE_O.jpg
380.2301399707794	1.835458040237484	face	0.76570391655	1.0	0.8	n/a	n/a	382.0655980110169	382.09664392471313	383.0662848949432	n/a	01F_AN_O.jpg	01F_AN_O.jpg	02F_AN_O.jpg
383.19685792922974	1.868591070175171	face	1.36586689949	0.0	0.8	n/a	n/a	385.0654489994049	385.0968070030213	386.0662319660187	394.4830219745636	MFZ_132.jpg	MFZ_132.jpg	MFZ_120.jpg
