onset	duration	trial_type	response_time	accuracy_binarized	tr_seconds	cueStartTime	cueEndTime	trialEndTime	fixStartTime	fixEndTime	runEndTime	stimLeft	stimTop	stimRight
11.0490250587	1.9687049389	shape	0.860692024231	1.0	0.8	8.0125169754	11.0009150505	13.0177299976	13.0233299732	14.0162169933	n/a	oval-horizontal.bmp	oval-horizontal.bmp	oval-vertical.bmp
14.1393139362	1.8777241706999988	shape	1.0277841091175	0.0	0.8	n/a	n/a	16.0170381069	16.0221631527	17.0160951614	n/a	oval-horizontal.bmp	oval-vertical.bmp	oval-vertical.bmp
17.1132540703	1.903178930300001	shape	0.693047046661	1.0	0.8	n/a	n/a	19.0164330006	19.0206410885	20.0158729553	n/a	circle.bmp	circle.bmp	oval-vertical.bmp
20.1160900593	1.899985075	shape	0.842703104019	1.0	0.8	n/a	n/a	22.0160751343	22.0202479362	23.0152599812	n/a	circle.bmp	oval-vertical.bmp	oval-vertical.bmp
23.1124560833	1.9032709598999984	shape	1.00924515724	1.0	0.8	n/a	n/a	25.0157270432	25.0198271275	26.0151531696	n/a	oval-horizontal.bmp	circle.bmp	circle.bmp
26.1119799614	1.9030210972	shape	0.709049940109	1.0	0.8	n/a	n/a	28.0150010586	28.0199201107	29.0148720741	n/a	oval-horizontal.bmp	oval-horizontal.bmp	circle.bmp
32.0782999992	1.9373769761000048	face	0.892030000687	1.0	0.8	29.0885350704	32.0142431259	34.0156769753	34.0209021568	35.0141079426	n/a	FAZ_23.jpg	FAZ_23.jpg	FAX_43.jpg
35.1566870213	1.8581609725999968	face	0.958508014679	1.0	0.8	n/a	n/a	37.0148479939	37.0191090107	38.0139660835	n/a	26M_FE_O.jpg	26M_FE_O.jpg	27M_FE_O.BMP
38.1385149956	1.8753819464999992	face	0.871286153793	1.0	0.8	n/a	n/a	40.0138969421	40.0188040733	41.0133800507	n/a	MFX_16.jpg	MFZ_50.jpg	MFZ_50.jpg
41.1668851376	1.848004817900005	face	0.870341062546	1.0	0.8	n/a	n/a	43.0148899555	43.0192639828	44.0129821301	n/a	09F_AN_O.jpg	09F_AN_O.jpg	10F_AN_O.jpg
44.1483681202	1.8656439781000032	face	0.674194097519	1.0	0.8	n/a	n/a	46.0140120983	46.0182020664	47.0133621693	n/a	38M_AN_O.BMP	39M_AN_O.jpg	39M_AN_O.jpg
47.1350240707	1.8791000842999992	face	1.1052479744	1.0	0.8	n/a	n/a	49.014124155	49.0182859898	50.0128190517	n/a	FFZ_102.jpg	FFX_130.jpg	FFX_130.jpg
53.0679631233	1.9605798722000003	shape	0.717470884323	1.0	0.8	50.0876190662	53.0294260979	55.0285429955	55.0335819721	56.027946949	n/a	oval-horizontal.bmp	oval-vertical.bmp	oval-vertical.bmp
56.1263570786	1.902278900100001	shape	0.556298017502	1.0	0.8	n/a	n/a	58.0286359787	58.0327069759	59.0287151337	n/a	circle.bmp	oval-vertical.bmp	oval-vertical.bmp
59.1275780201	1.901212930699998	shape	0.838202953339	1.0	0.8	n/a	n/a	61.0287909508	61.0330340862	62.0282440186	n/a	oval-horizontal.bmp	oval-horizontal.bmp	oval-vertical.bmp
62.1307041645	1.8969857693000023	shape	0.722857952118	1.0	0.8	n/a	n/a	64.0276899338	64.0325670242	65.027433157	n/a	oval-horizontal.bmp	oval-horizontal.bmp	circle.bmp
65.1320850849	1.8954799174999977	shape	1.02141284943	1.0	0.8	n/a	n/a	67.0275650024	67.0316300392	68.0266060829	n/a	circle.bmp	circle.bmp	oval-vertical.bmp
68.1275970936	1.8997669219999973	shape	0.721538066864	1.0	0.8	n/a	n/a	70.0273640156	70.0314509869	71.026761055	n/a	oval-horizontal.bmp	circle.bmp	circle.bmp
74.1132929325	1.9138431548999928	face	0.803714036942	1.0	0.8	71.102836132	74.0261831284	76.0271360874	76.0326499939	77.0264191628	n/a	03F_FE_O.jpg	05F_FE_O.jpg	05F_FE_O.jpg
77.1499710083	1.8773050308000023	face	0.787002801895	1.0	0.8	n/a	n/a	79.0272760391	79.0314879417	80.0257740021	n/a	FAZ_32.jpg	FAZ_32.jpg	FAX_45.jpg
80.1467421055	1.879516840000008	face	0.737101078033	1.0	0.8	n/a	n/a	82.0262589455	82.0303721428	83.0259180069	n/a	MAZ_128.jpg	MAZ_101.jpg	MAZ_101.jpg
83.1733291149	1.852895021500004	face	0.718928813934	1.0	0.8	n/a	n/a	85.0262241364	85.0304141045	86.0255031586	n/a	11F_AN_O.jpg	11F_AN_O.jpg	12F_AN_O.jpg
86.1686241627	1.8568298816000064	face	0.636693000793	1.0	0.8	n/a	n/a	88.0254540443	88.0298309326	89.0254590511	n/a	26M_FE_O.jpg	33M_FE_O.jpg	33M_FE_O.jpg
89.1492030621	1.8759589194999933	face	0.898967981339	1.0	0.8	n/a	n/a	91.0251619816	91.0293700695	92.023704052	n/a	MFZ_132.jpg	MFZ_132.jpg	MFZ_120.jpg
95.0617849827	1.962738037099996	shape	0.70355796814	1.0	0.8	92.1019370556	95.0240390301	97.0245230198	97.0295450687	98.0237820148	n/a	circle.bmp	oval-vertical.bmp	oval-vertical.bmp
98.1247341633	1.8986778256999912	shape	0.586849927902	1.0	0.8	n/a	n/a	100.023411989	100.028095007	101.023406982	n/a	oval-horizontal.bmp	oval-horizontal.bmp	circle.bmp
101.12577796	1.897627115000006	shape	0.636300086975	1.0	0.8	n/a	n/a	103.023405075	103.027646065	104.022907972	n/a	oval-horizontal.bmp	oval-vertical.bmp	oval-vertical.bmp
104.124441147	1.899009942999996	shape	0.887152910233	1.0	0.8	n/a	n/a	106.02345109	106.027933121	107.022844076	n/a	oval-horizontal.bmp	circle.bmp	circle.bmp
107.12470603	1.8987600800000024	shape	0.753741025925	1.0	0.8	n/a	n/a	109.02346611	109.027641058	110.022439957	n/a	oval-horizontal.bmp	oval-horizontal.bmp	oval-vertical.bmp
110.12510705	1.897735119000004	shape	0.85365486145	1.0	0.8	n/a	n/a	112.022842169	112.027505159	113.022382975	n/a	circle.bmp	circle.bmp	oval-vertical.bmp
116.076997042	1.945868015000002	face	0.801609992981	1.0	0.8	113.103819132	116.021296978	118.022865057	118.028432131	119.021454096	n/a	FAZ_23.jpg	FAZ_23.jpg	FAX_43.jpg
119.155171156	1.866927862000012	face	0.735860824585	1.0	0.8	n/a	n/a	121.022099018	121.026401043	122.021320105	n/a	26M_FE_O.jpg	26M_FE_O.jpg	27M_FE_O.BMP
122.141987085	1.879266978000004	face	0.653023958206	1.0	0.8	n/a	n/a	124.021254063	124.025799036	125.020671129	n/a	MFZ_50.jpg	MFZ_50.jpg	MFX_16.jpg
125.165159941	1.856515169000005	face	0.820405006409	1.0	0.8	n/a	n/a	127.02167511	127.02580595	128.02058506	n/a	10F_AN_O.jpg	09F_AN_O.jpg	09F_AN_O.jpg
128.151167154	1.870001793	face	0.638732910156	1.0	0.8	n/a	n/a	130.021168947	130.025397062	131.01997304	n/a	38M_AN_O.BMP	39M_AN_O.jpg	39M_AN_O.jpg
131.145769119	1.8751869200000044	face	0.881695985794	1.0	0.8	n/a	n/a	133.020956039	133.025301933	134.019737959	n/a	FFZ_102.jpg	FFX_130.jpg	FFX_130.jpg
137.057805061	1.9620079999999973	shape	1.0370619297	1.0	0.8	134.102401018	137.019155979	139.019813061	139.024775982	140.018751144	n/a	oval-horizontal.bmp	oval-horizontal.bmp	oval-vertical.bmp
140.121636152	1.897877932	shape	0.671857118607	1.0	0.8	n/a	n/a	142.019514084	142.023630142	143.018734932	n/a	oval-horizontal.bmp	oval-vertical.bmp	oval-vertical.bmp
143.124752045	1.8944070339999823	shape	0.53634095192	1.0	0.8	n/a	n/a	145.019159079	145.023440123	146.01829505	n/a	circle.bmp	circle.bmp	oval-vertical.bmp
146.124782085	1.893913031000011	shape	0.619979858398	1.0	0.8	n/a	n/a	148.018695116	148.023317099	149.018766165	n/a	circle.bmp	oval-vertical.bmp	oval-vertical.bmp
149.128833055	1.8895258910000048	shape	0.746356964111	1.0	0.8	n/a	n/a	151.018358946	151.022442102	152.016972065	n/a	oval-horizontal.bmp	circle.bmp	circle.bmp
152.123051167	1.894903897999996	shape	0.635857105255	1.0	0.8	n/a	n/a	154.017955065	154.022077084	155.017363071	n/a	oval-horizontal.bmp	oval-horizontal.bmp	circle.bmp
158.106883049	1.911262034999993	face	1.72094082832	1.0	0.8	155.100064993	158.017117977	160.018145084	160.023870945	161.016777039	n/a	20M_FE_O.jpg	21M_FE_O.jpg	21M_FE_O.jpg
161.173975945	1.843668221999991	face	0.796267032623	1.0	0.8	n/a	n/a	163.017644167	163.021806002	164.017050028	n/a	01F_AN_O.jpg	07F_AN_O.jpg	07F_AN_O.jpg
164.143974066	1.8732950689999937	face	0.712828874588	1.0	0.8	n/a	n/a	166.017269135	166.021526098	167.016047955	n/a	FFX_139.jpg	FFZ_102.jpg	FFZ_102.jpg
167.175116062	1.841917991999992	face	0.744789123535	1.0	0.8	n/a	n/a	169.017034054	169.021201134	170.015483141	n/a	23M_AN_O.jpg	23M_AN_O.jpg	22M_AN_O.jpg
170.142987967	1.87352800299999	face	0.661689996719	1.0	0.8	n/a	n/a	172.01651597	172.021242142	173.015319109	n/a	MAZ_146.jpg	MAZ_146.jpg	MAX_233.jpg
173.166486025	1.850237131	face	0.887966156006	1.0	0.8	n/a	n/a	175.016723156	175.020936012	176.014560938	n/a	15F_FE_O.jpg	15F_FE_O.jpg	16F_FE_O.jpg
179.053004026	1.9619770049999945	shape	0.787797927856	1.0	0.8	176.099605083	179.014731169	181.014981031	181.020135164	182.014302969	n/a	oval-horizontal.bmp	oval-vertical.bmp	oval-vertical.bmp
182.124588966	1.889837981	shape	0.611238002777	1.0	0.8	n/a	n/a	184.014426947	184.019704103	185.014848948	n/a	circle.bmp	oval-vertical.bmp	oval-vertical.bmp
185.123290062	1.891095876999998	shape	0.593078136444	1.0	0.8	n/a	n/a	187.014385939	187.018840075	188.013116121	n/a	oval-horizontal.bmp	oval-horizontal.bmp	oval-vertical.bmp
188.121869087	1.892245054	shape	0.727082014084	1.0	0.8	n/a	n/a	190.014114141	190.018378019	191.013292074	n/a	oval-horizontal.bmp	oval-horizontal.bmp	circle.bmp
191.121883154	1.89143681500002	shape	0.808637857437	1.0	0.8	n/a	n/a	193.013319969	193.017658949	194.013225079	n/a	circle.bmp	circle.bmp	oval-vertical.bmp
194.122328043	1.8910710809999784	shape	0.925561189651	1.0	0.8	n/a	n/a	196.013399124	196.018649101	197.012736082	n/a	oval-horizontal.bmp	circle.bmp	circle.bmp
200.074244022	1.939659118999998	face	0.792245149612	1.0	0.8	197.101041079	200.013007164	202.013903141	202.019268036	203.012752056	n/a	FFX_54.jpg	FFX_54.jpg	FAX_51.jpg
203.158046961	1.870959997	face	0.758409023285	1.0	0.8	n/a	n/a	205.029006958	205.033173084	206.028331995	n/a	40M_FE_O.BMP	41M_FE_O.jpg	41M_FE_O.jpg
206.184504032	1.8451149469999848	face	0.653477907181	1.0	0.8	n/a	n/a	208.029618979	208.03445816	209.027904987	n/a	29M_AN_O.jpg	29M_AN_O.jpg	28M_AN_O.jpg
209.159949064	1.868880034	face	0.608377933502	1.0	0.8	n/a	n/a	211.028829098	211.033082962	212.027263165	n/a	FFZ_18.jpg	FFZ_29.jpg	FFZ_29.jpg
212.186277151	1.842316865999976	face	1.08875989914	1.0	0.8	n/a	n/a	214.028594017	214.032698154	215.027621031	n/a	19F_AN_O.jpg	19F_AN_O.jpg	09F_AN_O.jpg
215.155563116	1.872548819000002	face	0.706690073013	1.0	0.8	n/a	n/a	217.028111935	217.032343149	218.026575089	n/a	MFZ_132.jpg	MFZ_7.jpg	MFZ_7.jpg
221.064103127	1.9628028859999915	shape	0.556265830994	1.0	0.8	218.109060049	221.026247978	223.026906013	223.032293081	224.026168108	n/a	circle.bmp	oval-vertical.bmp	oval-vertical.bmp
224.133113146	1.8930408950000128	shape	0.570755958557	1.0	0.8	n/a	n/a	226.026154041	226.030219078	227.025774956	n/a	oval-horizontal.bmp	oval-horizontal.bmp	circle.bmp
227.130293131	1.896400927999992	shape	0.48926281929	1.0	0.8	n/a	n/a	229.026694059	229.030681133	230.025599003	n/a	oval-horizontal.bmp	oval-vertical.bmp	oval-vertical.bmp
230.130363941	1.894389152999992	shape	0.488441944122	1.0	0.8	n/a	n/a	232.024753094	232.029124022	233.024888992	n/a	oval-horizontal.bmp	circle.bmp	circle.bmp
233.132076025	1.8933629990000045	shape	0.819917917252	1.0	0.8	n/a	n/a	235.025439024	235.02968502	236.024471045	n/a	oval-horizontal.bmp	oval-horizontal.bmp	oval-vertical.bmp
236.130892038	1.8938589099999767	shape	0.522269964218	1.0	0.8	n/a	n/a	238.024750948	238.028722048	239.024143934	n/a	circle.bmp	circle.bmp	oval-vertical.bmp
242.101313114	1.9233229160000176	face	0.721050024033	0.0	0.8	239.109266043	242.024028063	244.02463603	244.030138016	245.023434162	n/a	20M_FE_O.jpg	21M_FE_O.jpg	21M_FE_O.jpg
245.175832033	1.848896026999995	face	0.720664978027	1.0	0.8	n/a	n/a	247.02472806	247.028946161	248.023592949	n/a	07F_AN_O.jpg	07F_AN_O.jpg	01F_AN_O.jpg
248.148296118	1.8754329680000128	face	0.786847114563	1.0	0.8	n/a	n/a	250.023729086	250.028017998	251.02227807	n/a	FFZ_102.jpg	FFZ_102.jpg	FFX_139.jpg
251.173135996	1.8508329389999856	face	0.870221853256	1.0	0.8	n/a	n/a	253.023968935	253.028069019	254.023108006	n/a	22M_AN_O.jpg	23M_AN_O.jpg	23M_AN_O.jpg
254.146710157	1.8765678410000248	face	0.651834964752	1.0	0.8	n/a	n/a	256.023277998	256.027708054	257.021471977	n/a	MAX_233.jpg	MAZ_146.jpg	MAZ_146.jpg
257.166958094	1.855859995000003	face	1.05257296562	1.0	0.8	n/a	n/a	259.022818089	259.026867151	260.021265984	n/a	15F_FE_O.jpg	15F_FE_O.jpg	16F_FE_O.jpg
263.059715033	1.9624941340000528	shape	0.685637950897	1.0	0.8	260.106944084	263.021471977	265.022209167	265.027398109	266.021183014	n/a	oval-horizontal.bmp	oval-horizontal.bmp	oval-vertical.bmp
266.128635168	1.8921399120000049	shape	0.687224149704	1.0	0.8	n/a	n/a	268.02077508	268.025187969	269.021158934	n/a	oval-horizontal.bmp	oval-vertical.bmp	oval-vertical.bmp
269.132416964	1.888761042999988	shape	0.533180952072	1.0	0.8	n/a	n/a	271.021178007	271.025197983	272.019998074	n/a	circle.bmp	circle.bmp	oval-vertical.bmp
272.130435944	1.8912451260000007	shape	0.655993938446	1.0	0.8	n/a	n/a	274.02168107	274.025851011	275.020431042	n/a	circle.bmp	oval-vertical.bmp	oval-vertical.bmp
275.13162303	1.8887510299999803	shape	0.752776861191	1.0	0.8	n/a	n/a	277.02037406	277.024670124	278.019664049	n/a	oval-horizontal.bmp	circle.bmp	circle.bmp
278.131257057	1.888911008999969	shape	0.604234933853	1.0	0.8	n/a	n/a	280.020168066	280.024613142	281.019497156	n/a	oval-horizontal.bmp	oval-horizontal.bmp	circle.bmp
284.080775976	1.93980407700002	face	0.603229045868	1.0	0.8	281.106809139	284.019188166	286.020580053	286.025710106	287.019225121	n/a	FFZ_18.jpg	FAZ_129.jpg	FAZ_129.jpg
287.170068026	1.849251984999967	face	1.35404205322	1.0	0.8	n/a	n/a	289.019320011	289.023447037	290.019356966	n/a	20M_FE_O.jpg	24M_FE_O.jpg	24M_FE_O.jpg
290.151702166	1.867082833999973	face	0.653469085693	1.0	0.8	n/a	n/a	292.018785	292.02314806	293.018226147	n/a	FAZ_23.jpg	FAX_25.jpg	FAX_25.jpg
293.168024063	1.850925922999977	face	0.586152076721	1.0	0.8	n/a	n/a	295.018949986	295.022978067	296.017795086	n/a	33M_FE_O.jpg	33M_FE_O.jpg	35M_FE_O.jpg
296.175431013	1.843599081000036	face	0.8656001091	1.0	0.8	n/a	n/a	298.019030094	298.023053169	299.017599106	n/a	01F_AN_O.jpg	01F_AN_O.jpg	02F_AN_O.jpg
299.142727137	1.8750588890000013	face	0.766381025314	1.0	0.8	n/a	n/a	301.017786026	301.021844149	302.017207146	n/a	MFZ_132.jpg	MFZ_132.jpg	MFZ_120.jpg
305.053877115	1.96341204700002	shape	0.699980020523	1.0	0.8	302.107968092	305.016847134	307.017289162	307.02225399	308.016283035	n/a	oval-horizontal.bmp	oval-vertical.bmp	oval-vertical.bmp
308.128342152	1.8888528339999768	shape	0.615103960037	1.0	0.8	n/a	n/a	310.017194986	310.021212101	311.016226053	n/a	circle.bmp	oval-vertical.bmp	oval-vertical.bmp
311.12729001	1.8892080789999568	shape	0.931066989899	1.0	0.8	n/a	n/a	313.016498089	313.020524979	314.016268015	n/a	oval-horizontal.bmp	oval-horizontal.bmp	oval-vertical.bmp
314.126490116	1.889547824999965	shape	0.547840833664	1.0	0.8	n/a	n/a	316.016037941	316.020457029	317.015324116	n/a	oval-horizontal.bmp	oval-horizontal.bmp	circle.bmp
317.130445004	1.8855950829999983	shape	0.553406000137	1.0	0.8	n/a	n/a	319.016040087	319.020179033	320.015407085	n/a	circle.bmp	circle.bmp	oval-vertical.bmp
320.12829113	1.8872518539999987	shape	0.679618835449	1.0	0.8	n/a	n/a	322.015542984	322.019557953	323.014912128	n/a	oval-horizontal.bmp	circle.bmp	circle.bmp
326.100530148	1.9147779939999623	face	1.68691706657	1.0	0.8	323.10494113	326.01466608	328.015308142	328.020744085	329.014487028	n/a	17F_FE_O.jpg	18F_FE_O.jpg	18F_FE_O.jpg
329.174719095	1.840412855000011	face	0.679022073746	1.0	0.8	n/a	n/a	331.01513195	331.019437075	332.013456106	n/a	42M_AN_O.jpg	43M_AN_O.jpg	43M_AN_O.jpg
332.170545101	1.8442020420000065	face	0.885244846344	1.0	0.8	n/a	n/a	334.014747143	334.018712044	335.013568163	n/a	31M_FE_O.jpg	31M_FE_O.jpg	32M_FE_O.jpg
335.148780107	1.865275859999997	face	0.653697013855	1.0	0.8	n/a	n/a	337.014055967	337.018079042	338.013029099	n/a	FAZ_212.jpg	FFZ_236.jpg	FFZ_236.jpg
338.171932936	1.842061043000001	face	0.694584846497	1.0	0.8	n/a	n/a	340.013993979	340.018535137	341.012917042	n/a	06F_FE_O.jpg	06F_FE_O.jpg	08F_FE_O.jpg
341.143254042	1.8710880279999744	face	0.675415992737	1.0	0.8	n/a	n/a	343.01434207	343.018761158	344.013673067	n/a	MAZ_128.jpg	MAZ_128.jpg	MAX_39.jpg
347.067465067	1.9625349039999944	shape	0.686667919159	1.0	0.8	344.106987953	347.029350996	349.029999971	349.035271168	350.028522015	n/a	circle.bmp	oval-vertical.bmp	oval-vertical.bmp
350.145400047	1.88291812	shape	0.591211080551	1.0	0.8	n/a	n/a	352.028318167	352.032578945	353.027755022	n/a	oval-horizontal.bmp	oval-horizontal.bmp	circle.bmp
353.148823977	1.8796710959999807	shape	0.670225143433	1.0	0.8	n/a	n/a	355.028495073	355.032582045	356.027852058	n/a	oval-horizontal.bmp	oval-vertical.bmp	oval-vertical.bmp
356.141843081	1.8862590790000129	shape	0.743753910065	1.0	0.8	n/a	n/a	358.02810216	358.032263041	359.027266979	n/a	oval-horizontal.bmp	circle.bmp	circle.bmp
359.144659042	1.8833539490000248	shape	0.660921812057	1.0	0.8	n/a	n/a	361.028012991	361.032135963	362.027178049	n/a	oval-horizontal.bmp	oval-horizontal.bmp	oval-vertical.bmp
362.146173	1.881591082	shape	0.586452960968	1.0	0.8	n/a	n/a	364.027764082	364.032345057	365.027194023	n/a	circle.bmp	circle.bmp	oval-vertical.bmp
368.082777023	1.944348096999988	face	0.603126049042	1.0	0.8	365.120454073	368.026427031	370.02712512	370.032109976	371.026411057	n/a	FFZ_18.jpg	FAZ_129.jpg	FAZ_129.jpg
371.184092999	1.8429889670000528	face	1.25860381126	1.0	0.8	n/a	n/a	373.027081966	373.031159163	374.025777102	n/a	20M_FE_O.jpg	24M_FE_O.jpg	24M_FE_O.jpg
374.161971092	1.8645420080000008	face	0.704398870468	1.0	0.8	n/a	n/a	376.0265131	376.031128168	377.02571702	n/a	FAZ_23.jpg	FAX_25.jpg	FAX_25.jpg
377.187039137	1.8393998139999888	face	0.640187978745	1.0	0.8	n/a	n/a	379.026438951	379.030755043	380.025015116	n/a	33M_FE_O.jpg	33M_FE_O.jpg	35M_FE_O.jpg
380.182214022	1.8440301420000085	face	0.65100312233	1.0	0.8	n/a	n/a	382.026244164	382.030277967	383.025264025	n/a	01F_AN_O.jpg	01F_AN_O.jpg	02F_AN_O.jpg
383.15914917	1.8671488760000443	face	0.691272974014	1.0	0.8	n/a	n/a	385.026298046	385.030375957	386.024422169	394.423181057	MFZ_132.jpg	MFZ_132.jpg	MFZ_120.jpg
