onset	duration	trial_type	response_time	accuracy_binarized	tr_seconds	cueStartTime	cueEndTime	trialEndTime	fixStartTime	fixEndTime	runEndTime	stimLeft	stimTop	stimRight
11.0655560493	1.9696969986	shape	0.703801870346	1.0	0.8	8.02832102776	11.0182490349	13.0352530479	13.0398142338	14.0340600014	n/a	oval-horizontal.bmp	oval-horizontal.bmp	oval-vertical.bmp
14.143196106	1.891185998900001	shape	0.717684984207	1.0	0.8	n/a	n/a	16.0343821049	16.0379052162	17.0339941978	n/a	oval-horizontal.bmp	oval-vertical.bmp	oval-vertical.bmp
17.1329071522	1.9009189605000003	shape	0.737036943436	1.0	0.8	n/a	n/a	19.0338261127	19.0375342369	20.0333271027	n/a	circle.bmp	circle.bmp	oval-vertical.bmp
20.1316201687	1.9019918442000008	shape	0.769675970078	1.0	0.8	n/a	n/a	22.0336120129	22.037238121	23.033301115	n/a	circle.bmp	oval-vertical.bmp	oval-vertical.bmp
23.1320230961	1.9013121128	shape	0.787292957306	1.0	0.8	n/a	n/a	25.0333352089	25.0370280743	26.0326061249	n/a	oval-horizontal.bmp	circle.bmp	circle.bmp
26.1294760704	1.903897047000001	shape	0.736549854279	1.0	0.8	n/a	n/a	28.0333731174	28.0369911194	29.0322780609	n/a	oval-horizontal.bmp	oval-horizontal.bmp	circle.bmp
32.0954692364	1.9375557899000029	face	0.682229995728	1.0	0.8	29.1056461334	32.0320830345	34.0330250263	34.0377511978	35.0319950581	n/a	FAZ_23.jpg	FAZ_23.jpg	FAX_43.jpg
35.1767990589	1.8555250167999944	face	0.598859071732	1.0	0.8	n/a	n/a	37.0323240757	37.0360012054	38.0313310623	n/a	26M_FE_O.jpg	26M_FE_O.jpg	27M_FE_O.BMP
38.1552450657	1.8767449855999985	face	0.685701847076	1.0	0.8	n/a	n/a	40.0319900513	40.0361180305	41.0310211182	n/a	MFX_16.jpg	MFZ_50.jpg	MFZ_50.jpg
41.1814551353	1.850673914000005	face	0.603048086166	1.0	0.8	n/a	n/a	43.0321290493	43.0357830524	44.0309381485	n/a	09F_AN_O.jpg	09F_AN_O.jpg	10F_AN_O.jpg
44.1682391167	1.8630750179000013	face	0.603586912155	1.0	0.8	n/a	n/a	46.0313141346	46.0349071026	47.0302820206	n/a	38M_AN_O.BMP	39M_AN_O.jpg	39M_AN_O.jpg
47.1545190811	1.876318931600004	face	1.278581023217	0.0	0.8	n/a	n/a	49.0308380127	49.034787178	50.0306560993	n/a	FFZ_102.jpg	FFX_130.jpg	FFX_130.jpg
53.0676681995	1.9632198811000023	shape	0.836550951004	1.0	0.8	50.1073682308	53.0297641754	55.0308880806	55.0355322361	56.0287570953	n/a	oval-horizontal.bmp	oval-vertical.bmp	oval-vertical.bmp
56.1298210621	1.9002349376999987	shape	0.587164878845	1.0	0.8	n/a	n/a	58.0300559998	58.0338120461	59.0293450356	n/a	circle.bmp	oval-vertical.bmp	oval-vertical.bmp
59.1290872097	1.9000399112999984	shape	1.63661694527	1.0	0.8	n/a	n/a	61.029127121	61.0335261822	62.0285131931	n/a	oval-horizontal.bmp	oval-horizontal.bmp	oval-vertical.bmp
62.12698102	1.901733159999992	shape	0.663079023361	1.0	0.8	n/a	n/a	64.02871418	64.0327630043	65.0287871361	n/a	oval-horizontal.bmp	oval-horizontal.bmp	circle.bmp
65.1325981617	1.8957819939000016	shape	0.720245838165	1.0	0.8	n/a	n/a	67.0283801556	67.0323002338	68.0275771618	n/a	circle.bmp	circle.bmp	oval-vertical.bmp
68.1267590523	1.901605129199993	shape	0.74459195137	1.0	0.8	n/a	n/a	70.0283641815	70.0320010185	71.0276970863	n/a	oval-horizontal.bmp	circle.bmp	circle.bmp
74.1128470898	1.914276123000008	face	0.920731067657	1.0	0.8	71.1065251827	74.0279102325	76.0271232128	76.0320611	77.0266711712	n/a	03F_FE_O.jpg	05F_FE_O.jpg	05F_FE_O.jpg
77.1541261673	1.882910966899999	face	0.786257982254	1.0	0.8	n/a	n/a	79.0370371342	79.0409560204	80.0262989998	n/a	FAZ_32.jpg	FAZ_32.jpg	FAX_45.jpg
80.1525840759	1.884537935300003	face	0.869983911514	1.0	0.8	n/a	n/a	82.0371220112	82.0407600403	83.0263361931	n/a	MAZ_128.jpg	MAZ_101.jpg	MAZ_101.jpg
83.1715271473	1.8657379149999969	face	0.903301954269	1.0	0.8	n/a	n/a	85.0372650623	85.0409610271	86.0358970165	n/a	11F_AN_O.jpg	11F_AN_O.jpg	12F_AN_O.jpg
86.1824610233	1.8432641030000096	face	1.03325986862	1.0	0.8	n/a	n/a	88.0257251263	88.0293750763	89.0258901119	n/a	26M_FE_O.jpg	33M_FE_O.jpg	33M_FE_O.jpg
89.151291132	1.8850660324000048	face	1.01883792877	1.0	0.8	n/a	n/a	91.0363571644	91.0402801037	92.0364460945	n/a	MFZ_132.jpg	MFZ_132.jpg	MFZ_120.jpg
95.0625760555	1.963058948499992	shape	0.73663687706	1.0	0.8	92.1144180298	95.0257411003	97.025635004	97.0301291943	98.02465415	n/a	circle.bmp	oval-vertical.bmp	oval-vertical.bmp
98.1306672096	1.894260883399994	shape	0.753473043442	1.0	0.8	n/a	n/a	100.024928093	100.028883219	101.024514198	n/a	oval-horizontal.bmp	oval-horizontal.bmp	circle.bmp
101.126703024	1.8985090250000096	shape	0.709163188934	1.0	0.8	n/a	n/a	103.025212049	103.029068232	104.024404049	n/a	oval-horizontal.bmp	oval-vertical.bmp	oval-vertical.bmp
104.126858234	1.897480965	shape	0.74215388298	1.0	0.8	n/a	n/a	106.024339199	106.028144121	107.023617029	n/a	oval-horizontal.bmp	circle.bmp	circle.bmp
107.12778616	1.896826982000008	shape	0.69220995903	1.0	0.8	n/a	n/a	109.024613142	109.028305054	110.023358107	n/a	oval-horizontal.bmp	oval-horizontal.bmp	oval-vertical.bmp
110.126751184	1.8959460260000045	shape	0.674646854401	1.0	0.8	n/a	n/a	112.02269721	112.026827097	113.023072004	n/a	circle.bmp	circle.bmp	oval-vertical.bmp
116.094015121	1.9293010239999973	face	0.673092126846	1.0	0.8	113.103348017	116.039249182	118.023316145	118.028188229	119.02286005	n/a	FAZ_23.jpg	FAZ_23.jpg	FAX_43.jpg
119.161879063	1.8608341209999963	face	0.93427491188	1.0	0.8	n/a	n/a	121.022713184	121.02630806	122.02246213	n/a	26M_FE_O.jpg	26M_FE_O.jpg	27M_FE_O.BMP
122.143805027	1.8952610489999984	face	1.00670194626	1.0	0.8	n/a	n/a	124.039066076	124.042690039	125.038715124	n/a	MFZ_50.jpg	MFZ_50.jpg	MFX_16.jpg
125.187643051	1.8512461190000096	face	1.22242283821	1.0	0.8	n/a	n/a	127.03888917	127.042478085	128.037825108	n/a	10F_AN_O.jpg	09F_AN_O.jpg	09F_AN_O.jpg
128.169525146	1.8689820769999983	face	1.17274689674	1.0	0.8	n/a	n/a	130.038507223	130.042082071	131.037599087	n/a	38M_AN_O.BMP	39M_AN_O.jpg	39M_AN_O.jpg
131.162059069	1.876013040000004	face	1.28706383705	1.0	0.8	n/a	n/a	133.038072109	133.041691065	134.037721157	n/a	FFZ_102.jpg	FFX_130.jpg	FFX_130.jpg
137.075076103	1.9624819760000207	shape	1.02107715607	1.0	0.8	134.121660233	137.036898136	139.037558079	139.042219162	140.037085056	n/a	oval-horizontal.bmp	oval-horizontal.bmp	oval-vertical.bmp
140.143834114	1.893246889000011	shape	0.705171823502	1.0	0.8	n/a	n/a	142.037081003	142.040735006	143.036252022	n/a	oval-horizontal.bmp	oval-vertical.bmp	oval-vertical.bmp
143.142982006	1.894352197999979	shape	0.821393013	1.0	0.8	n/a	n/a	145.037334204	145.041024208	146.03661108	n/a	circle.bmp	circle.bmp	oval-vertical.bmp
146.14222312	1.894138096999996	shape	0.78723692894	1.0	0.8	n/a	n/a	148.036361217	148.039955139	149.035572052	n/a	circle.bmp	oval-vertical.bmp	oval-vertical.bmp
149.14194417	1.8940730090000104	shape	0.837363958359	1.0	0.8	n/a	n/a	151.036017179	151.040127039	152.035312176	n/a	oval-horizontal.bmp	circle.bmp	circle.bmp
152.139601231	1.8958029739999915	shape	0.804023981094	1.0	0.8	n/a	n/a	154.035404205	154.038937092	155.035404205	n/a	oval-horizontal.bmp	oval-horizontal.bmp	circle.bmp
158.112996101	1.9226391320000005	face	0.985696077347	1.0	0.8	155.117931128	158.034092188	160.035635233	160.040233135	161.034097195	n/a	20M_FE_O.jpg	21M_FE_O.jpg	21M_FE_O.jpg
161.187300205	1.8474559789999887	face	0.868962049484	1.0	0.8	n/a	n/a	163.034756184	163.038211107	164.034217119	n/a	01F_AN_O.jpg	07F_AN_O.jpg	07F_AN_O.jpg
164.161139011	1.8733780390000163	face	0.802973985672	1.0	0.8	n/a	n/a	166.03451705	166.038165092	167.033560038	n/a	FFX_139.jpg	FFZ_102.jpg	FFZ_102.jpg
167.186409235	1.8478798869999764	face	0.853589057922	1.0	0.8	n/a	n/a	169.034289122	169.037942171	170.033668041	n/a	23M_AN_O.jpg	23M_AN_O.jpg	22M_AN_O.jpg
170.164435148	1.869487047000007	face	0.702496051788	1.0	0.8	n/a	n/a	172.033922195	172.037555218	173.032988071	n/a	MAZ_146.jpg	MAZ_146.jpg	MAX_233.jpg
173.184000015	1.850221156999993	face	1.48622202873	1.0	0.8	n/a	n/a	175.034221172	175.037811041	176.033365011	n/a	15F_FE_O.jpg	15F_FE_O.jpg	16F_FE_O.jpg
179.069844007	1.962954045000004	shape	0.68460893631	1.0	0.8	176.118005037	179.032051086	181.032798052	181.037161112	182.031870127	n/a	oval-horizontal.bmp	oval-vertical.bmp	oval-vertical.bmp
182.142162085	1.8903651230000087	shape	0.585618972778	1.0	0.8	n/a	n/a	184.032527208	184.036031008	185.031766176	n/a	circle.bmp	oval-vertical.bmp	oval-vertical.bmp
185.139193058	1.8929350380000187	shape	0.953320026398	1.0	0.8	n/a	n/a	187.032128096	187.035648108	188.03125906	n/a	oval-horizontal.bmp	oval-horizontal.bmp	oval-vertical.bmp
188.138617039	1.893563986000004	shape	0.686287879944	1.0	0.8	n/a	n/a	190.032181025	190.035927057	191.031630039	n/a	oval-horizontal.bmp	oval-horizontal.bmp	circle.bmp
191.140279055	1.8907730579999795	shape	0.882874011993	1.0	0.8	n/a	n/a	193.031052113	193.034977198	194.030477047	n/a	circle.bmp	circle.bmp	oval-vertical.bmp
194.140091181	1.890889883	shape	0.582645177841	1.0	0.8	n/a	n/a	196.030981064	196.034553051	197.030215025	n/a	oval-horizontal.bmp	circle.bmp	circle.bmp
200.092994213	1.93727088	face	0.848802089691	1.0	0.8	197.116615057	200.029773235	202.030265093	202.034866095	203.029636145	n/a	FFX_54.jpg	FFX_54.jpg	FAX_51.jpg
203.177764177	1.8522589209999865	face	0.869957923889	1.0	0.8	n/a	n/a	205.030023098	205.03372407	206.029351234	n/a	40M_FE_O.BMP	41M_FE_O.jpg	41M_FE_O.jpg
206.187245131	1.842771053000007	face	0.769163131714	1.0	0.8	n/a	n/a	208.030016184	208.034060001	209.028780222	n/a	29M_AN_O.jpg	29M_AN_O.jpg	28M_AN_O.jpg
209.157918215	1.8723988529999929	face	0.663763999939	1.0	0.8	n/a	n/a	211.030317068	211.033995152	212.028606176	n/a	FFZ_18.jpg	FFZ_29.jpg	FFZ_29.jpg
212.183447123	1.84564590399998	face	0.853759050369	1.0	0.8	n/a	n/a	214.029093027	214.032516003	215.028671026	n/a	19F_AN_O.jpg	19F_AN_O.jpg	09F_AN_O.jpg
215.158400059	1.8702580929999897	face	1.18004202843	1.0	0.8	n/a	n/a	217.028658152	217.032403231	218.028100014	n/a	MFZ_132.jpg	MFZ_7.jpg	MFZ_7.jpg
221.066300154	1.9620599739999989	shape	0.720061063766	1.0	0.8	218.116294146	221.027954102	223.028360128	223.032820225	224.026719093	n/a	circle.bmp	oval-vertical.bmp	oval-vertical.bmp
224.137225151	1.8903889660000173	shape	0.847543001175	1.0	0.8	n/a	n/a	226.027614117	226.031606197	227.026898146	n/a	oval-horizontal.bmp	oval-horizontal.bmp	circle.bmp
227.140694141	1.8864800929999888	shape	0.945466041565	1.0	0.8	n/a	n/a	229.027174234	229.030872107	230.026705027	n/a	oval-horizontal.bmp	oval-vertical.bmp	oval-vertical.bmp
230.142528057	1.8837909700000068	shape	0.996110916138	1.0	0.8	n/a	n/a	232.026319027	232.030263186	233.026257038	n/a	oval-horizontal.bmp	circle.bmp	circle.bmp
233.139559031	1.8869171139999992	shape	0.946628093719	1.0	0.8	n/a	n/a	235.026476145	235.030304193	236.02543211	n/a	oval-horizontal.bmp	oval-horizontal.bmp	oval-vertical.bmp
236.142487049	1.883641004999987	shape	0.696021080017	1.0	0.8	n/a	n/a	238.026128054	238.029822111	239.025515079	n/a	circle.bmp	circle.bmp	oval-vertical.bmp
242.103157043	1.922165155999977	face	1.34451007843	1.0	0.8	239.116766214	242.025254011	244.025322199	244.030286074	245.024994135	n/a	20M_FE_O.jpg	21M_FE_O.jpg	21M_FE_O.jpg
245.185899019	1.839456081999998	face	1.19648218155	0.0	0.8	n/a	n/a	247.025355101	247.029187202	248.024537086	n/a	07F_AN_O.jpg	07F_AN_O.jpg	01F_AN_O.jpg
248.156214237	1.869305849	face	0.943196058273	1.0	0.8	n/a	n/a	250.025520086	250.02919817	251.024398088	n/a	FFZ_102.jpg	FFZ_102.jpg	FFX_139.jpg
251.178447008	1.846792220999987	face	1.05271196365	1.0	0.8	n/a	n/a	253.025239229	253.028324127	254.024050236	n/a	22M_AN_O.jpg	23M_AN_O.jpg	23M_AN_O.jpg
254.15516305	1.8797910210000168	face	0.986949205399	1.0	0.8	n/a	n/a	256.034954071	256.038566113	257.023482084	n/a	MAX_233.jpg	MAZ_146.jpg	MAZ_146.jpg
257.180674076	1.8430500029999728	face	1.48730707169	1.0	0.8	n/a	n/a	259.023724079	259.027335167	260.023738146	n/a	15F_FE_O.jpg	15F_FE_O.jpg	16F_FE_O.jpg
263.071362019	1.9633760450000184	shape	1.01534509659	1.0	0.8	260.115669012	263.033780098	265.034738064	265.039313078	266.033871174	n/a	oval-horizontal.bmp	oval-horizontal.bmp	oval-vertical.bmp
266.15183115	1.882956981999996	shape	0.685670137405	1.0	0.8	n/a	n/a	268.034788132	268.038450003	269.033863068	n/a	oval-horizontal.bmp	oval-vertical.bmp	oval-vertical.bmp
269.147366047	1.8916599749999816	shape	0.753632068634	1.0	0.8	n/a	n/a	271.039026022	271.042529106	272.038519144	n/a	circle.bmp	circle.bmp	oval-vertical.bmp
272.155713081	1.8835940360000336	shape	0.758026123047	1.0	0.8	n/a	n/a	274.039307117	274.042950153	275.038162231	n/a	circle.bmp	oval-vertical.bmp	oval-vertical.bmp
275.156388044	1.8814740180000056	shape	0.858698129654	1.0	0.8	n/a	n/a	277.037862062	277.041470051	278.037972212	n/a	oval-horizontal.bmp	circle.bmp	circle.bmp
278.154912233	1.8829779629999728	shape	0.857679128647	1.0	0.8	n/a	n/a	280.037890196	280.041568041	281.037396193	n/a	oval-horizontal.bmp	oval-horizontal.bmp	circle.bmp
284.098280191	1.9401350029999664	face	1.12255978584	1.0	0.8	281.129551172	284.037076235	286.038415194	286.042932034	287.036665201	n/a	FFZ_18.jpg	FAZ_129.jpg	FAZ_129.jpg
287.201550007	1.835816145000024	face	1.20654606819	1.0	0.8	n/a	n/a	289.037366152	289.041032076	290.036460161	n/a	20M_FE_O.jpg	24M_FE_O.jpg	24M_FE_O.jpg
290.174005032	1.8629260059999524	face	1.19013094902	1.0	0.8	n/a	n/a	292.036931038	292.040482044	293.036237001	n/a	FAZ_23.jpg	FAX_25.jpg	FAX_25.jpg
293.201144218	1.8360319139999888	face	0.955560922623	1.0	0.8	n/a	n/a	295.037176132	295.04107523	296.035955191	n/a	33M_FE_O.jpg	33M_FE_O.jpg	35M_FE_O.jpg
296.201930046	1.8344841000000545	face	1.12298202515	1.0	0.8	n/a	n/a	298.036414146	298.040018082	299.035490036	n/a	01F_AN_O.jpg	01F_AN_O.jpg	02F_AN_O.jpg
299.171534061	1.8646731380000008	face	0.955807924271	1.0	0.8	n/a	n/a	301.036207199	301.039852142	302.034948111	n/a	MFZ_132.jpg	MFZ_132.jpg	MFZ_120.jpg
305.072664022	1.96231818199999	shape	0.806552886963	0.0	0.8	302.13027215	305.034880161	307.034982204	307.039514065	308.03475523	n/a	oval-horizontal.bmp	oval-vertical.bmp	oval-vertical.bmp
308.151144028	1.8835310930000448	shape	0.688724040985	1.0	0.8	n/a	n/a	310.034675121	310.03849411	311.03472209	n/a	circle.bmp	oval-vertical.bmp	oval-vertical.bmp
311.1542871	1.880597114000011	shape	0.737838983536	1.0	0.8	n/a	n/a	313.034884214	313.038493156	314.034094095	n/a	oval-horizontal.bmp	oval-horizontal.bmp	oval-vertical.bmp
314.15201807	1.88233113299998	shape	0.720749855042	1.0	0.8	n/a	n/a	316.034349203	316.037976027	317.033897161	n/a	oval-horizontal.bmp	oval-horizontal.bmp	circle.bmp
317.152923107	1.880959034	shape	1.05294108391	1.0	0.8	n/a	n/a	319.033882141	319.037589073	320.03375411	n/a	circle.bmp	circle.bmp	oval-vertical.bmp
320.150707006	1.8826591970000093	shape	0.603214025497	1.0	0.8	n/a	n/a	322.033366203	322.037133217	323.033214092	n/a	oval-horizontal.bmp	circle.bmp	circle.bmp
326.11314106	1.919584036000004	face	1.16952013969	1.0	0.8	323.128586054	326.033167124	328.032725096	328.037238121	329.031761169	n/a	17F_FE_O.jpg	18F_FE_O.jpg	18F_FE_O.jpg
329.193818092	1.838721991	face	0.852877140045	1.0	0.8	n/a	n/a	331.032540083	331.036180019	332.031619072	n/a	42M_AN_O.jpg	43M_AN_O.jpg	43M_AN_O.jpg
332.194791079	1.8375210759999727	face	0.753781080246	1.0	0.8	n/a	n/a	334.032312155	334.036009073	335.031559229	n/a	31M_FE_O.jpg	31M_FE_O.jpg	32M_FE_O.jpg
335.171943188	1.8598699570000008	face	0.837196111679	1.0	0.8	n/a	n/a	337.031813145	337.03571105	338.031518221	n/a	FAZ_212.jpg	FFZ_236.jpg	FFZ_236.jpg
338.200825214	1.83129596699996	face	1.10308885574	1.0	0.8	n/a	n/a	340.032121181	340.035772085	341.031002045	n/a	06F_FE_O.jpg	06F_FE_O.jpg	08F_FE_O.jpg
341.167383194	1.8640079499999729	face	0.969470024109	1.0	0.8	n/a	n/a	343.031391144	343.035000086	344.030702114	n/a	MAZ_128.jpg	MAZ_128.jpg	MAX_39.jpg
347.067685127	1.962917090000019	shape	0.819748163223	1.0	0.8	344.129458189	347.030306101	349.030602217	349.035346031	350.029480219	n/a	circle.bmp	oval-vertical.bmp	oval-vertical.bmp
350.151961088	1.8781690600000047	shape	0.66698384285	1.0	0.8	n/a	n/a	352.030130148	352.033734083	353.029609203	n/a	oval-horizontal.bmp	oval-horizontal.bmp	circle.bmp
353.150779009	1.879105090999985	shape	0.587771177292	1.0	0.8	n/a	n/a	355.0298841	355.033498049	356.029829025	n/a	oval-horizontal.bmp	oval-vertical.bmp	oval-vertical.bmp
356.154439211	1.875077962999967	shape	0.653429031372	1.0	0.8	n/a	n/a	358.029517174	358.03314209	359.028755188	n/a	oval-horizontal.bmp	circle.bmp	circle.bmp
359.154041052	1.8749070169999984	shape	0.620362997055	1.0	0.8	n/a	n/a	361.028948069	361.032636166	362.028506041	n/a	oval-horizontal.bmp	oval-horizontal.bmp	oval-vertical.bmp
362.150903225	1.877726793000022	shape	0.786453962326	1.0	0.8	n/a	n/a	364.028630018	364.032503128	365.028613091	n/a	circle.bmp	circle.bmp	oval-vertical.bmp
368.082038164	1.9472050670000272	face	0.736944913864	1.0	0.8	365.129725218	368.028174162	370.029243231	370.033764124	371.028168201	n/a	FFZ_18.jpg	FAZ_129.jpg	FAZ_129.jpg
371.19828701	1.829584121999972	face	1.28631091118	1.0	0.8	n/a	n/a	373.027871132	373.031468153	374.027334213	n/a	20M_FE_O.jpg	24M_FE_O.jpg	24M_FE_O.jpg
374.170357227	1.857613802000003	face	0.831735134125	1.0	0.8	n/a	n/a	376.027971029	376.032291174	377.026636124	n/a	FAZ_23.jpg	FAX_25.jpg	FAX_25.jpg
377.193910122	1.8334400650000475	face	0.752841949463	1.0	0.8	n/a	n/a	379.027350187	379.031165123	380.027038097	n/a	33M_FE_O.jpg	33M_FE_O.jpg	35M_FE_O.jpg
380.199417114	1.827552079999976	face	1.3040189743	1.0	0.8	n/a	n/a	382.026969194	382.030562162	383.025987148	n/a	01F_AN_O.jpg	01F_AN_O.jpg	02F_AN_O.jpg
383.163448095	1.8632030490000488	face	0.886744976044	1.0	0.8	n/a	n/a	385.026651144	385.030265093	386.026466131	394.426167011	MFZ_132.jpg	MFZ_132.jpg	MFZ_120.jpg
