onset	duration	trial_type	response_time	accuracy_binarized	tr_seconds	cueStartTime	cueEndTime	trialEndTime	fixStartTime	fixEndTime	runEndTime	stimLeft	stimTop	stimRight
11.0785489082	1.9458839894000004	shape	1.51590204239	1.0	0.8	8.03476500511	11.0252678394	13.0244328976	13.040681839	14.0236399174	n/a	oval-horizontal.bmp	oval-horizontal.bmp	oval-vertical.bmp
14.1582849026	1.8650391102	shape	1.31841206551	1.0	0.8	n/a	n/a	16.0233240128	16.0399918556	17.0393719673	n/a	oval-horizontal.bmp	oval-vertical.bmp	oval-vertical.bmp
17.1487979889	1.8904759883999984	shape	1.12831997871	1.0	0.8	n/a	n/a	19.0392739773	19.0555899143	20.0385289192	n/a	circle.bmp	circle.bmp	oval-vertical.bmp
20.150056839	1.888401985199998	shape	0.64359998703	1.0	0.8	n/a	n/a	22.0384588242	22.0545809269	23.037861824	n/a	circle.bmp	oval-vertical.bmp	oval-vertical.bmp
23.1512479782	1.883334875100001	shape	0.586005210876	1.0	0.8	n/a	n/a	25.0345828533	25.0515518188	26.0371408463	n/a	oval-horizontal.bmp	circle.bmp	circle.bmp
26.1526420116	1.8841338157999985	shape	0.904262065887	1.0	0.8	n/a	n/a	28.0367758274	28.0526819229	29.0364658833	n/a	oval-horizontal.bmp	oval-horizontal.bmp	circle.bmp
32.1023368835	1.9317839145999969	face	0.919099092484	1.0	0.8	29.1136288643	32.0347719193	34.0341207981	34.0511310101	35.0336658955	n/a	FAZ_23.jpg	FAZ_23.jpg	FAX_43.jpg
35.1903338432	1.842826127999999	face	0.697195053101	1.0	0.8	n/a	n/a	37.0331599712	37.0493187904	38.0329089165	n/a	26M_FE_O.jpg	26M_FE_O.jpg	27M_FE_O.BMP
38.1673979759	1.8654148579	face	0.660124063492	1.0	0.8	n/a	n/a	40.0328128338	40.0492138863	41.0322709084	n/a	MFX_16.jpg	MFZ_50.jpg	MFZ_50.jpg
41.1941869259	1.8379480839000024	face	0.706618070602	1.0	0.8	n/a	n/a	43.0321350098	43.0486328602	44.030744791	n/a	09F_AN_O.jpg	09F_AN_O.jpg	10F_AN_O.jpg
44.1820340157	1.8464338779000045	face	0.804025173187	1.0	0.8	n/a	n/a	46.0284678936	46.0457098484	47.0306658745	n/a	38M_AN_O.BMP	39M_AN_O.jpg	39M_AN_O.jpg
47.1624808311	1.867536068	face	0.68764090538	1.0	0.8	n/a	n/a	49.0300168991	49.0465278625	50.0299677849	n/a	FFZ_102.jpg	FFX_130.jpg	FFX_130.jpg
53.0791649818	1.948237896000002	shape	0.552675008774	1.0	0.8	50.1095910072	53.0287048817	55.0274028778	55.044303894	56.0272028446	n/a	oval-horizontal.bmp	oval-vertical.bmp	oval-vertical.bmp
56.1452720165	1.8819139004000007	shape	0.45214009285	1.0	0.8	n/a	n/a	58.0271859169	58.0432949066	59.0265398026	n/a	circle.bmp	oval-vertical.bmp	oval-vertical.bmp
59.143819809	1.8818631171999984	shape	0.441362142563	0.0	0.8	n/a	n/a	61.0256829262	61.0420758724	62.0249638557	n/a	oval-horizontal.bmp	oval-horizontal.bmp	oval-vertical.bmp
62.1372709274	1.8878889083999937	shape	0.589869022369	1.0	0.8	n/a	n/a	64.0251598358	64.0417230129	65.0245759487	n/a	oval-horizontal.bmp	oval-horizontal.bmp	circle.bmp
65.1415028572	1.897561073300011	shape	0.633709907532	1.0	0.8	n/a	n/a	67.0390639305	67.0559768677	68.0235319138	n/a	circle.bmp	circle.bmp	oval-vertical.bmp
68.1399059296	1.88372206679999	shape	0.571223974228	1.0	0.8	n/a	n/a	70.0236279964	70.0407969952	71.022974968	n/a	oval-horizontal.bmp	circle.bmp	circle.bmp
74.1271159649	1.9105999469999944	face	0.882478952408	1.0	0.8	71.1031448841	74.0384659767	76.0377159119	76.0546379089	77.0378270149	n/a	03F_FE_O.jpg	05F_FE_O.jpg	05F_FE_O.jpg
77.179407835	1.857720136599994	face	1.1953690052	1.0	0.8	n/a	n/a	79.0371279716	79.0532808304	80.0367588997	n/a	FAZ_32.jpg	FAZ_32.jpg	FAX_45.jpg
80.1873028278	1.8487031460000047	face	0.859929800034	0.0	0.8	n/a	n/a	82.0360059738	82.0530388355	83.0352818966	n/a	MAZ_128.jpg	MAZ_101.jpg	MAZ_101.jpg
83.2005198002	1.8349721432000048	face	0.807928085327	1.0	0.8	n/a	n/a	85.0354919434	85.0522639751	86.0311048031	n/a	11F_AN_O.jpg	11F_AN_O.jpg	12F_AN_O.jpg
86.1989228725	1.8334951400999984	face	0.684143066406	1.0	0.8	n/a	n/a	88.0324180126	88.0485057831	89.0339548588	n/a	26M_FE_O.jpg	33M_FE_O.jpg	33M_FE_O.jpg
89.1833767891	1.850703001	face	0.834932088852	1.0	0.8	n/a	n/a	91.0340797901	91.0500638485	92.032791853	n/a	MFZ_132.jpg	MFZ_132.jpg	MFZ_120.jpg
95.0831708908	1.9488210677999973	shape	0.752712011337	1.0	0.8	92.1163449287	95.0318408012	97.0319919586	97.0484409332	98.0311279297	n/a	circle.bmp	oval-vertical.bmp	oval-vertical.bmp
98.1486217976	1.8816010954000009	shape	0.73605799675	1.0	0.8	n/a	n/a	100.030222893	100.047463894	101.029808998	n/a	oval-horizontal.bmp	oval-horizontal.bmp	circle.bmp
101.14753294	1.8818268779999985	shape	0.576586961746	1.0	0.8	n/a	n/a	103.029359818	103.045759916	104.029320002	n/a	oval-horizontal.bmp	oval-vertical.bmp	oval-vertical.bmp
104.146140814	1.8829021449999883	shape	0.589906930923	1.0	0.8	n/a	n/a	106.029042959	106.045523882	107.024698019	n/a	oval-horizontal.bmp	circle.bmp	circle.bmp
107.142395973	1.885931014999997	shape	0.954686880112	1.0	0.8	n/a	n/a	109.028326988	109.044675827	110.028244972	n/a	oval-horizontal.bmp	oval-horizontal.bmp	oval-vertical.bmp
110.143998861	1.8841891290000063	shape	0.968669176102	1.0	0.8	n/a	n/a	112.02818799	112.044185877	113.026419878	n/a	circle.bmp	circle.bmp	oval-vertical.bmp
116.093659878	1.932327032000004	face	0.669061899185	1.0	0.8	113.150059938	116.025921822	118.02598691	118.041438818	119.024160862	n/a	FAZ_23.jpg	FAZ_23.jpg	FAX_43.jpg
119.175633907	1.849021911999997	face	0.720278978348	1.0	0.8	n/a	n/a	121.024655819	121.040654898	122.02360487	n/a	26M_FE_O.jpg	26M_FE_O.jpg	27M_FE_O.BMP
122.157396793	1.8826680189999927	face	0.576821088791	1.0	0.8	n/a	n/a	124.040064812	124.056141853	125.039659977	n/a	MFZ_50.jpg	MFZ_50.jpg	MFX_16.jpg
125.201632977	1.837826966999998	face	0.990480899811	1.0	0.8	n/a	n/a	127.039459944	127.055835009	128.035286903	n/a	10F_AN_O.jpg	09F_AN_O.jpg	09F_AN_O.jpg
128.186933994	1.8518958090000128	face	0.653202056885	1.0	0.8	n/a	n/a	130.038829803	130.054276943	131.038323879	n/a	38M_AN_O.BMP	39M_AN_O.jpg	39M_AN_O.jpg
131.188606977	1.8492019180000057	face	0.703248977661	1.0	0.8	n/a	n/a	133.037808895	133.0539639	134.036532879	n/a	FFZ_102.jpg	FFX_130.jpg	FFX_130.jpg
137.085922003	1.9488909239999828	shape	0.753358125687	1.0	0.8	134.131780863	137.035542965	139.034812927	139.051932812	140.034415007	n/a	oval-horizontal.bmp	oval-horizontal.bmp	oval-vertical.bmp
140.175691843	1.859235047999988	shape	0.845805883408	1.0	0.8	n/a	n/a	142.034926891	142.050534964	143.033957005	n/a	oval-horizontal.bmp	oval-vertical.bmp	oval-vertical.bmp
143.150955915	1.8827319149999937	shape	0.778333902359	1.0	0.8	n/a	n/a	145.03368783	145.050046921	146.032377958	n/a	circle.bmp	circle.bmp	oval-vertical.bmp
146.150385857	1.8826160429999843	shape	0.757850170135	1.0	0.8	n/a	n/a	148.0330019	148.049291849	149.028645992	n/a	circle.bmp	oval-vertical.bmp	oval-vertical.bmp
149.14892602	1.883326769000007	shape	0.620154857635	1.0	0.8	n/a	n/a	151.032252789	151.048472881	152.031713009	n/a	oval-horizontal.bmp	circle.bmp	circle.bmp
152.165498018	1.8661108020000088	shape	0.920375108719	1.0	0.8	n/a	n/a	154.03160882	154.048468828	155.030544996	n/a	oval-horizontal.bmp	oval-horizontal.bmp	circle.bmp
158.11876297	1.910132884999996	face	0.965032100677	1.0	0.8	155.115742922	158.028649807	160.028895855	160.045195818	161.028149843	n/a	20M_FE_O.jpg	21M_FE_O.jpg	21M_FE_O.jpg
161.195392847	1.8318729400000109	face	0.819437026978	1.0	0.8	n/a	n/a	163.027265787	163.04417491	164.027427912	n/a	01F_AN_O.jpg	07F_AN_O.jpg	07F_AN_O.jpg
164.171324968	1.8556690220000007	face	0.674016952515	1.0	0.8	n/a	n/a	166.02699399	166.044008017	167.026441813	n/a	FFX_139.jpg	FFZ_102.jpg	FFZ_102.jpg
167.189014912	1.8377010819999955	face	0.857792854309	1.0	0.8	n/a	n/a	169.026715994	169.042852879	170.039698839	n/a	23M_AN_O.jpg	23M_AN_O.jpg	22M_AN_O.jpg
170.176704884	1.8490300169999896	face	0.803514003754	1.0	0.8	n/a	n/a	172.025734901	172.042531013	173.0246768	n/a	MAZ_146.jpg	MAZ_146.jpg	MAX_233.jpg
173.192235947	1.8326849929999869	face	0.834353208542	1.0	0.8	n/a	n/a	175.02492094	175.040787935	176.024564981	n/a	15F_FE_O.jpg	15F_FE_O.jpg	16F_FE_O.jpg
179.092321873	1.946731089999986	shape	0.569545030594	1.0	0.8	176.111174822	179.039302826	181.039052963	181.055961847	182.038635015	n/a	oval-horizontal.bmp	oval-vertical.bmp	oval-vertical.bmp
182.163014889	1.8752570149999883	shape	0.628896951675	1.0	0.8	n/a	n/a	184.038271904	184.054816008	185.037009001	n/a	circle.bmp	oval-vertical.bmp	oval-vertical.bmp
185.164488792	1.872539998000008	shape	0.890274047852	1.0	0.8	n/a	n/a	187.03702879	187.054056883	188.036680937	n/a	oval-horizontal.bmp	oval-horizontal.bmp	oval-vertical.bmp
188.165912867	1.8669970029999945	shape	0.621562004089	1.0	0.8	n/a	n/a	190.03290987	190.050043821	191.033529997	n/a	oval-horizontal.bmp	oval-horizontal.bmp	circle.bmp
191.151135921	1.884159089000008	shape	0.652460098267	1.0	0.8	n/a	n/a	193.03529501	193.052697897	194.035370827	n/a	circle.bmp	circle.bmp	oval-vertical.bmp
194.152328014	1.8829867839999963	shape	0.967215061188	1.0	0.8	n/a	n/a	196.035314798	196.051682949	197.034789801	n/a	oval-horizontal.bmp	circle.bmp	circle.bmp
200.100979805	1.931439160999986	face	0.620059013367	1.0	0.8	197.123859882	200.033015013	202.032418966	202.049331903	203.031991959	n/a	FFX_54.jpg	FFX_54.jpg	FAX_51.jpg
203.182410955	1.849534035000005	face	0.943661928177	1.0	0.8	n/a	n/a	205.03194499	205.048368931	206.03122592	n/a	40M_FE_O.BMP	41M_FE_O.jpg	41M_FE_O.jpg
206.242784977	1.7876818179999816	face	0.693657875061	1.0	0.8	n/a	n/a	208.030466795	208.047407866	209.030422926	n/a	29M_AN_O.jpg	29M_AN_O.jpg	28M_AN_O.jpg
209.176217794	1.8510310650000008	face	1.00336813927	1.0	0.8	n/a	n/a	211.027248859	211.043097973	212.026532888	n/a	FFZ_18.jpg	FFZ_29.jpg	FFZ_29.jpg
212.197299957	1.8323779109999805	face	0.804596185684	1.0	0.8	n/a	n/a	214.029677868	214.045796871	215.02908802	n/a	19F_AN_O.jpg	19F_AN_O.jpg	09F_AN_O.jpg
215.199765921	1.8284709449999923	face	0.835968971252	1.0	0.8	n/a	n/a	217.028236866	217.045108795	218.027691841	n/a	MFZ_132.jpg	MFZ_7.jpg	MFZ_7.jpg
221.077701807	1.9485580919999848	shape	0.601995944977	1.0	0.8	218.119613886	221.026735783	223.026259899	223.042221785	224.025341988	n/a	circle.bmp	oval-vertical.bmp	oval-vertical.bmp
224.150635958	1.8751218319999907	shape	0.695400953293	1.0	0.8	n/a	n/a	226.02575779	226.04202199	227.024318933	n/a	oval-horizontal.bmp	oval-horizontal.bmp	circle.bmp
227.158980846	1.865411996999996	shape	0.525924921036	1.0	0.8	n/a	n/a	229.024392843	229.041124821	230.023635864	n/a	oval-horizontal.bmp	oval-vertical.bmp	oval-vertical.bmp
230.153315783	1.8838040819999835	shape	0.570785045624	1.0	0.8	n/a	n/a	232.037119865	232.052931786	233.036988974	n/a	oval-horizontal.bmp	circle.bmp	circle.bmp
233.188315868	1.851540088999997	shape	0.872287988663	1.0	0.8	n/a	n/a	235.039855957	235.055768013	236.038654804	n/a	oval-horizontal.bmp	oval-horizontal.bmp	oval-vertical.bmp
236.172504902	1.8656640050000133	shape	0.669099807739	1.0	0.8	n/a	n/a	238.038168907	238.055712938	239.038372993	n/a	circle.bmp	circle.bmp	oval-vertical.bmp
242.12072897	1.9167888160000075	face	0.701189041138	1.0	0.8	239.133338928	242.036844015	244.037517786	244.0529778	245.035673857	n/a	20M_FE_O.jpg	21M_FE_O.jpg	21M_FE_O.jpg
245.203108788	1.8320560450000016	face	0.657504796982	1.0	0.8	n/a	n/a	247.035164833	247.052405834	248.034690857	n/a	07F_AN_O.jpg	07F_AN_O.jpg	01F_AN_O.jpg
248.186110973	1.848481893999974	face	0.559889793396	1.0	0.8	n/a	n/a	250.034592867	250.051285982	251.034020901	n/a	FFZ_102.jpg	FFZ_102.jpg	FFX_139.jpg
251.214764833	1.816470146999989	face	0.753436088562	1.0	0.8	n/a	n/a	253.03123498	253.047432899	254.03094101	n/a	22M_AN_O.jpg	23M_AN_O.jpg	23M_AN_O.jpg
254.18215394	1.8515439040000103	face	0.721190929413	1.0	0.8	n/a	n/a	256.033697844	256.049849987	257.032316923	n/a	MAX_233.jpg	MAZ_146.jpg	MAZ_146.jpg
257.200443983	1.8320360179999968	face	0.635122060776	1.0	0.8	n/a	n/a	259.032480001	259.049313784	260.030939817	n/a	15F_FE_O.jpg	15F_FE_O.jpg	16F_FE_O.jpg
263.082136869	1.9480020999999963	shape	0.719261884689	1.0	0.8	260.126338005	263.030650854	265.030138969	265.045871019	266.029483795	n/a	oval-horizontal.bmp	oval-horizontal.bmp	oval-vertical.bmp
266.16362381	1.8657290930000272	shape	0.561016082764	1.0	0.8	n/a	n/a	268.029352903	268.045568943	269.028426886	n/a	oval-horizontal.bmp	oval-vertical.bmp	oval-vertical.bmp
269.156368017	1.871257782000044	shape	0.609074115753	1.0	0.8	n/a	n/a	271.027625799	271.045143843	272.027591944	n/a	circle.bmp	circle.bmp	oval-vertical.bmp
272.157438993	1.8676970009999536	shape	0.566926956177	1.0	0.8	n/a	n/a	274.025135994	274.041196823	275.024863005	n/a	circle.bmp	oval-vertical.bmp	oval-vertical.bmp
275.158814907	1.8674609659999533	shape	0.45476603508	1.0	0.8	n/a	n/a	277.026275873	277.042905807	278.026076794	n/a	oval-horizontal.bmp	circle.bmp	circle.bmp
278.160538912	1.865411997000024	shape	0.651324987411	1.0	0.8	n/a	n/a	280.025950909	280.042042017	281.024531841	n/a	oval-horizontal.bmp	oval-horizontal.bmp	circle.bmp
284.091524839	1.931962014000021	face	0.553600072861	1.0	0.8	281.122936964	284.02391386	286.023486853	286.040159941	287.023205996	n/a	FFZ_18.jpg	FAZ_129.jpg	FAZ_129.jpg
287.207623005	1.8311898709999923	face	0.625600099564	1.0	0.8	n/a	n/a	289.038812876	289.056015968	290.038762808	n/a	20M_FE_O.jpg	24M_FE_O.jpg	24M_FE_O.jpg
290.182993889	1.85492801700002	face	0.541462898254	1.0	0.8	n/a	n/a	292.037921906	292.054231882	293.038130999	n/a	FAZ_23.jpg	FAX_25.jpg	FAX_25.jpg
293.218178988	1.817248821000021	face	0.602778196335	1.0	0.8	n/a	n/a	295.035427809	295.05160284	296.036844969	n/a	33M_FE_O.jpg	33M_FE_O.jpg	35M_FE_O.jpg
296.219735861	1.8174350259999985	face	0.818918943405	1.0	0.8	n/a	n/a	298.037170887	298.053854942	299.036459923	n/a	01F_AN_O.jpg	01F_AN_O.jpg	02F_AN_O.jpg
299.187611818	1.8479411609999945	face	0.502388954163	1.0	0.8	n/a	n/a	301.035552979	301.052720785	302.035542965	n/a	MFZ_132.jpg	MFZ_132.jpg	MFZ_120.jpg
305.084517002	1.948836803999996	shape	0.536095142365	1.0	0.8	302.134712934	305.034253836	307.033353806	307.050531864	308.032717943	n/a	oval-horizontal.bmp	oval-vertical.bmp	oval-vertical.bmp
308.183940887	1.848653078999973	shape	0.508275032043	1.0	0.8	n/a	n/a	310.032593966	310.048682928	311.032212019	n/a	circle.bmp	oval-vertical.bmp	oval-vertical.bmp
311.160575867	1.871102094000037	shape	0.459073066711	0.0	0.8	n/a	n/a	313.031677961	313.048437834	314.031034946	n/a	oval-horizontal.bmp	oval-horizontal.bmp	oval-vertical.bmp
314.165376902	1.8627359860000183	shape	0.483647823334	1.0	0.8	n/a	n/a	316.028112888	316.044945002	317.030531883	n/a	oval-horizontal.bmp	oval-horizontal.bmp	circle.bmp
317.164880991	1.86599397699996	shape	0.552000045776	1.0	0.8	n/a	n/a	319.030874968	319.046768904	320.029279947	n/a	circle.bmp	circle.bmp	oval-vertical.bmp
320.163421869	1.865756035000004	shape	0.602847099304	1.0	0.8	n/a	n/a	322.029177904	322.046346903	323.029266834	n/a	oval-horizontal.bmp	circle.bmp	circle.bmp
326.118177891	1.9095311159999824	face	0.728463172913	1.0	0.8	323.126966953	326.027773857	328.027709007	328.043097019	329.026184797	n/a	17F_FE_O.jpg	18F_FE_O.jpg	18F_FE_O.jpg
329.210575819	1.8155300619999928	face	0.527881145477	1.0	0.8	n/a	n/a	331.026105881	331.042172909	332.025158882	n/a	42M_AN_O.jpg	43M_AN_O.jpg	43M_AN_O.jpg
332.203645945	1.8216869830000064	face	0.624951839447	1.0	0.8	n/a	n/a	334.025332928	334.041498899	335.02477479	n/a	31M_FE_O.jpg	31M_FE_O.jpg	32M_FE_O.jpg
335.189136982	1.849534035000033	face	0.552900075912	1.0	0.8	n/a	n/a	337.038671017	337.056070805	338.023783922	n/a	FAZ_212.jpg	FFZ_236.jpg	FFZ_236.jpg
338.208009005	1.815598964000003	face	0.618910074234	1.0	0.8	n/a	n/a	340.023607969	340.040997982	341.023609877	n/a	06F_FE_O.jpg	06F_FE_O.jpg	08F_FE_O.jpg
341.174413919	1.84908199399996	face	0.718285083771	1.0	0.8	n/a	n/a	343.023495913	343.039290905	344.038981915	n/a	MAZ_128.jpg	MAZ_128.jpg	MAX_39.jpg
347.088892937	1.9485299579999944	shape	0.519192218781	1.0	0.8	344.140970945	347.037113905	349.037422895	349.053318977	350.037011862	n/a	circle.bmp	oval-vertical.bmp	oval-vertical.bmp
350.17118001	1.865736007999999	shape	0.49440908432	1.0	0.8	n/a	n/a	352.036916018	352.053067923	353.036121845	n/a	oval-horizontal.bmp	oval-horizontal.bmp	circle.bmp
353.170467854	1.8654530040000168	shape	0.526206970215	1.0	0.8	n/a	n/a	355.035920858	355.052412987	356.035107851	n/a	oval-horizontal.bmp	oval-vertical.bmp	oval-vertical.bmp
356.165966988	1.866884946000028	shape	0.55074095726	1.0	0.8	n/a	n/a	358.032851934	358.048983812	359.034690857	n/a	oval-horizontal.bmp	circle.bmp	circle.bmp
359.167917013	1.866134881999983	shape	0.903384923935	1.0	0.8	n/a	n/a	361.034051895	361.050259829	362.033749819	n/a	oval-horizontal.bmp	oval-horizontal.bmp	oval-vertical.bmp
362.201967955	1.831646919000036	shape	0.684072971344	1.0	0.8	n/a	n/a	364.033614874	364.049714804	365.032696009	n/a	circle.bmp	circle.bmp	oval-vertical.bmp
368.104973793	1.926450014000011	face	0.53036904335	1.0	0.8	365.137658834	368.030727863	370.031423807	370.047902822	371.030335903	n/a	FFZ_18.jpg	FAZ_129.jpg	FAZ_129.jpg
371.207101822	1.8228750229999944	face	0.677976131439	1.0	0.8	n/a	n/a	373.029976845	373.046646833	374.02954483	n/a	20M_FE_O.jpg	24M_FE_O.jpg	24M_FE_O.jpg
374.191682816	1.837265013999968	face	0.675472021103	1.0	0.8	n/a	n/a	376.02894783	376.045327902	377.025241852	n/a	FAZ_23.jpg	FAX_25.jpg	FAX_25.jpg
377.209731817	1.8170959950000447	face	0.533557891846	1.0	0.8	n/a	n/a	379.026827812	379.042643785	380.02807498	n/a	33M_FE_O.jpg	33M_FE_O.jpg	35M_FE_O.jpg
380.228022814	1.7999050619999934	face	0.788148164749	1.0	0.8	n/a	n/a	382.027927876	382.043872833	383.027066946	n/a	01F_AN_O.jpg	01F_AN_O.jpg	02F_AN_O.jpg
383.196175814	1.8304390899999703	face	0.770033121109	1.0	0.8	n/a	n/a	385.026614904	385.043531895	386.026089907	394.423305988	MFZ_132.jpg	MFZ_132.jpg	MFZ_120.jpg
