onset	duration	trial_type	response_time	accuracy_binarized	tr_seconds	cueStartTime	cueEndTime	trialEndTime	fixStartTime	fixEndTime	runEndTime	stimLeft	stimTop	stimRight
11.0576841831	1.9671330452000009	shape	0.736382961273	1.0	0.8	8.02682113647	11.0084180832	13.0248172283	13.0294520855	14.0231051445	n/a	oval-horizontal.bmp	oval-horizontal.bmp	oval-vertical.bmp
14.1365451813	1.886950016	shape	0.78068780899	1.0	0.8	n/a	n/a	16.0234951973	16.0272390842	17.0233302116	n/a	oval-horizontal.bmp	oval-vertical.bmp	oval-vertical.bmp
17.1255121231	1.898065090200003	shape	0.553692817688	1.0	0.8	n/a	n/a	19.0235772133	19.0274021626	20.0228672028	n/a	circle.bmp	circle.bmp	oval-vertical.bmp
20.1241571903	1.8988409042999983	shape	0.620884895325	1.0	0.8	n/a	n/a	22.0229980946	22.026758194	23.0226531029	n/a	circle.bmp	oval-vertical.bmp	oval-vertical.bmp
23.1251211166	1.8978469372000009	shape	0.587066888809	1.0	0.8	n/a	n/a	25.0229680538	25.0266611576	26.0224230289	n/a	oval-horizontal.bmp	circle.bmp	circle.bmp
26.1228702068	1.898413896600001	shape	0.652898073196	1.0	0.8	n/a	n/a	28.0212841034	28.0249760151	29.0222990513	n/a	oval-horizontal.bmp	oval-horizontal.bmp	circle.bmp
32.0872142315	1.935667991599999	face	0.594563007355	1.0	0.8	29.0992472172	32.0214350224	34.0228822231	34.0274870396	35.0219330788	n/a	FAZ_23.jpg	FAZ_23.jpg	FAX_43.jpg
35.1637971401	1.8577978610999963	face	0.591924905777	1.0	0.8	n/a	n/a	37.0215950012	37.0252201557	38.0210211277	n/a	26M_FE_O.jpg	26M_FE_O.jpg	27M_FE_O.BMP
38.1495962143	1.8720829487000048	face	0.792876005173	1.0	0.8	n/a	n/a	40.021679163	40.0254161358	41.0204811096	n/a	MFX_16.jpg	MFZ_50.jpg	MFZ_50.jpg
41.1755580902	1.8456480503	face	0.83531498909	1.0	0.8	n/a	n/a	43.0212061405	43.024998188	44.0205712318	n/a	09F_AN_O.jpg	09F_AN_O.jpg	10F_AN_O.jpg
44.1579191685	1.863308906500002	face	0.638916015625	1.0	0.8	n/a	n/a	46.021228075	46.0248541832	47.020250082	n/a	38M_AN_O.BMP	39M_AN_O.jpg	39M_AN_O.jpg
47.1438400745	1.8765931129999984	face	0.803176879883	0.0	0.8	n/a	n/a	49.0204331875	49.0241401196	50.0198721886	n/a	FFZ_102.jpg	FFX_130.jpg	FFX_130.jpg
53.0508611202	1.9688429833	shape	0.737220048904	1.0	0.8	50.0977861881	53.0135090351	55.0197041035	55.0244450569	56.0193631649	n/a	oval-horizontal.bmp	oval-vertical.bmp	oval-vertical.bmp
56.1227722168	1.896435976	shape	0.869657993317	1.0	0.8	n/a	n/a	58.0192081928	58.0226771832	59.0184681416	n/a	circle.bmp	oval-vertical.bmp	oval-vertical.bmp
59.1208481789	1.8930308818000008	shape	0.671967983246	1.0	0.8	n/a	n/a	61.0138790607	61.01760602	62.0137021542	n/a	oval-horizontal.bmp	oval-horizontal.bmp	oval-vertical.bmp
62.1164860725	1.8973791599999927	shape	0.568421840668	1.0	0.8	n/a	n/a	64.0138652325	64.0176482201	65.0134072304	n/a	oval-horizontal.bmp	oval-horizontal.bmp	circle.bmp
65.1194701195	1.8982150554000008	shape	0.737143039703	1.0	0.8	n/a	n/a	67.0176851749	67.0213310719	68.0172321796	n/a	circle.bmp	circle.bmp	oval-vertical.bmp
68.1228320599	1.895529031699993	shape	0.704175949097	1.0	0.8	n/a	n/a	70.0183610916	70.0221741199	71.017524004	n/a	oval-horizontal.bmp	circle.bmp	circle.bmp
74.1000001431	1.9171018600000025	face	1.02085804939	1.0	0.8	71.0989820957	74.016461134	76.0171020031	76.0215392113	77.0160682201	n/a	03F_FE_O.jpg	05F_FE_O.jpg	05F_FE_O.jpg
77.1392130852	1.877133131000008	face	0.703460931778	1.0	0.8	n/a	n/a	79.0163462162	79.0199050903	80.0156710148	n/a	FAZ_32.jpg	FAZ_32.jpg	FAX_45.jpg
80.1360991001	1.879975080500003	face	1.14117598534	1.0	0.8	n/a	n/a	82.0160741806	82.0197651386	83.0158290863	n/a	MAZ_128.jpg	MAZ_101.jpg	MAZ_101.jpg
83.1542360783	1.8615670204000023	face	0.790491104126	1.0	0.8	n/a	n/a	85.0158030987	85.0194540024	86.0153391361	n/a	11F_AN_O.jpg	11F_AN_O.jpg	12F_AN_O.jpg
86.1571011543	1.8586509228000097	face	0.636614084244	1.0	0.8	n/a	n/a	88.0157520771	88.0196640491	89.0148940086	n/a	26M_FE_O.jpg	33M_FE_O.jpg	33M_FE_O.jpg
89.137004137	1.8782019615999983	face	0.939274072647	1.0	0.8	n/a	n/a	91.0152060986	91.0187261105	92.0146350861	n/a	MFZ_132.jpg	MFZ_132.jpg	MFZ_120.jpg
95.0501701832	1.9643139838999983	shape	0.703125953674	1.0	0.8	92.0904531479	95.0141921043	97.0144841671	97.0192251205	98.0137681961	n/a	circle.bmp	oval-vertical.bmp	oval-vertical.bmp
98.117328167	1.896671057000006	shape	0.487883806229	1.0	0.8	n/a	n/a	100.013999224	100.018006086	101.013884068	n/a	oval-horizontal.bmp	oval-horizontal.bmp	circle.bmp
101.113743067	1.899852991000003	shape	0.538157939911	1.0	0.8	n/a	n/a	103.013596058	103.017192125	104.013185024	n/a	oval-horizontal.bmp	oval-vertical.bmp	oval-vertical.bmp
104.11621213	1.897270917	shape	0.604671001434	1.0	0.8	n/a	n/a	106.013483047	106.017073154	107.012773037	n/a	oval-horizontal.bmp	circle.bmp	circle.bmp
107.114281178	1.898816823000004	shape	0.636605024338	1.0	0.8	n/a	n/a	109.013098001	109.01685214	110.011847019	n/a	oval-horizontal.bmp	oval-horizontal.bmp	oval-vertical.bmp
110.114217997	1.8982532020000065	shape	0.536550045013	1.0	0.8	n/a	n/a	112.012471199	112.016218185	113.01245904	n/a	circle.bmp	circle.bmp	oval-vertical.bmp
116.068555117	1.9430999749999955	face	0.670096158981	1.0	0.8	113.08933115	116.011868	118.011655092	118.016170025	119.011937141	n/a	FAZ_23.jpg	FAZ_23.jpg	FAX_43.jpg
119.142721176	1.8699619770000029	face	0.586266994476	1.0	0.8	n/a	n/a	121.012683153	121.016275167	122.011118174	n/a	26M_FE_O.jpg	26M_FE_O.jpg	27M_FE_O.BMP
122.130403042	1.8808991909999973	face	0.486228942871	1.0	0.8	n/a	n/a	124.011302233	124.015106201	125.010664225	n/a	MFZ_50.jpg	MFZ_50.jpg	MFX_16.jpg
125.155045033	1.8562800880000048	face	0.950221061707	1.0	0.8	n/a	n/a	127.011325121	127.01486516	128.010449171	n/a	10F_AN_O.jpg	09F_AN_O.jpg	09F_AN_O.jpg
128.144595146	1.8662919999999872	face	0.653330802917	1.0	0.8	n/a	n/a	130.010887146	130.01439023	131.010657072	n/a	38M_AN_O.BMP	39M_AN_O.jpg	39M_AN_O.jpg
131.129692078	1.8979179859999813	face	0.486479043961	0.0	0.8	n/a	n/a	133.027610064	133.031165123	134.010284185	n/a	FFZ_102.jpg	FFX_130.jpg	FFX_130.jpg
137.065355062	1.9604740149999884	shape	0.766718864441	0.0	0.8	134.088982105	137.026072025	139.025829077	139.030323029	140.0255301	n/a	oval-horizontal.bmp	oval-horizontal.bmp	oval-vertical.bmp
140.126839161	1.8990709779999968	shape	0.670485973358	1.0	0.8	n/a	n/a	142.025910139	142.029500008	143.025160074	n/a	oval-horizontal.bmp	oval-vertical.bmp	oval-vertical.bmp
143.132242203	1.8933138840000083	shape	0.770175933838	1.0	0.8	n/a	n/a	145.025556087	145.029350042	146.025407076	n/a	circle.bmp	circle.bmp	oval-vertical.bmp
146.129505157	1.895500898999984	shape	0.703749895096	1.0	0.8	n/a	n/a	148.025006056	148.028837204	149.024781227	n/a	circle.bmp	oval-vertical.bmp	oval-vertical.bmp
149.130373001	1.8950710299999969	shape	0.636481046677	1.0	0.8	n/a	n/a	151.025444031	151.028958082	152.023937225	n/a	oval-horizontal.bmp	circle.bmp	circle.bmp
152.127879143	1.8968820569999991	shape	0.619130134583	1.0	0.8	n/a	n/a	154.0247612	154.028336048	155.024608135	n/a	oval-horizontal.bmp	oval-horizontal.bmp	circle.bmp
158.097820997	1.9271340369999728	face	1.07064390182	1.0	0.8	155.105680227	158.023816109	160.024955034	160.029823065	161.023676157	n/a	20M_FE_O.jpg	21M_FE_O.jpg	21M_FE_O.jpg
161.171395063	1.852473974999981	face	0.785832166672	1.0	0.8	n/a	n/a	163.023869038	163.027396202	164.022425175	n/a	01F_AN_O.jpg	07F_AN_O.jpg	07F_AN_O.jpg
164.146510124	1.8767778879999923	face	0.656098127365	1.0	0.8	n/a	n/a	166.023288012	166.027225018	167.022813082	n/a	FFX_139.jpg	FFZ_102.jpg	FFZ_102.jpg
167.165374041	1.8578581809999832	face	1.01495194435	1.0	0.8	n/a	n/a	169.023232222	169.026754141	170.02248621	n/a	23M_AN_O.jpg	23M_AN_O.jpg	22M_AN_O.jpg
170.1479702	1.875731944999984	face	0.804172992706	1.0	0.8	n/a	n/a	172.023702145	172.027708054	173.022181034	n/a	MAZ_146.jpg	MAZ_146.jpg	MAX_233.jpg
173.164880037	1.8577160840000035	face	0.864669084549	1.0	0.8	n/a	n/a	175.022596121	175.026266098	176.021966219	n/a	15F_FE_O.jpg	15F_FE_O.jpg	16F_FE_O.jpg
179.061439037	1.960839032999985	shape	0.716032981873	1.0	0.8	176.106312037	179.021394014	181.02227807	181.026766062	182.021668196	n/a	oval-horizontal.bmp	oval-vertical.bmp	oval-vertical.bmp
182.131334066	1.8893570900000043	shape	0.546772003174	1.0	0.8	n/a	n/a	184.020691156	184.024670124	185.021118164	n/a	circle.bmp	oval-vertical.bmp	oval-vertical.bmp
185.128577232	1.8923878669999965	shape	0.619379043579	1.0	0.8	n/a	n/a	187.020965099	187.024829149	188.020634174	n/a	oval-horizontal.bmp	oval-horizontal.bmp	oval-vertical.bmp
188.130184174	1.89034390400002	shape	0.552989959717	1.0	0.8	n/a	n/a	190.020528078	190.024098158	191.020656109	n/a	oval-horizontal.bmp	oval-horizontal.bmp	circle.bmp
191.127832174	1.892428875000008	shape	0.686706066132	1.0	0.8	n/a	n/a	193.020261049	193.02385807	194.019846201	n/a	circle.bmp	circle.bmp	oval-vertical.bmp
194.129000187	1.890239000000008	shape	0.687180042267	1.0	0.8	n/a	n/a	196.019239187	196.023101091	197.019861221	n/a	oval-horizontal.bmp	circle.bmp	circle.bmp
200.081844091	1.9380741120000096	face	0.662860155106	1.0	0.8	197.104789019	200.01874423	202.019918203	202.024441004	203.019016027	n/a	FFX_54.jpg	FFX_54.jpg	FAX_51.jpg
203.156944036	1.862426997	face	0.620904922485	1.0	0.8	n/a	n/a	205.019371033	205.022990227	206.018186092	n/a	40M_FE_O.BMP	41M_FE_O.jpg	41M_FE_O.jpg
206.164994001	1.854223012999995	face	0.757764101028	1.0	0.8	n/a	n/a	208.019217014	208.023092031	209.01822114	n/a	29M_AN_O.jpg	29M_AN_O.jpg	28M_AN_O.jpg
209.155929089	1.862802027999976	face	0.671040058136	1.0	0.8	n/a	n/a	211.018731117	211.022336006	212.018594027	n/a	FFZ_18.jpg	FFZ_29.jpg	FFZ_29.jpg
212.173426151	1.844837904000002	face	0.787727117538	1.0	0.8	n/a	n/a	214.018264055	214.021815062	215.01762414	n/a	19F_AN_O.jpg	19F_AN_O.jpg	09F_AN_O.jpg
215.142475128	1.8753230570000028	face	0.603505134583	1.0	0.8	n/a	n/a	217.017798185	217.021330118	218.017438173	n/a	MFZ_132.jpg	MFZ_7.jpg	MFZ_7.jpg
221.053464174	1.9635498529999893	shape	0.653828144073	1.0	0.8	218.106522083	221.016662121	223.017014027	223.021493196	224.016149044	n/a	circle.bmp	oval-vertical.bmp	oval-vertical.bmp
224.127719164	1.8888239859999767	shape	0.492259979248	1.0	0.8	n/a	n/a	226.01654315	226.020394087	227.015983105	n/a	oval-horizontal.bmp	oval-horizontal.bmp	circle.bmp
227.125987053	1.8849861620000183	shape	0.553028106689	0.0	0.8	n/a	n/a	229.010973215	229.014501095	230.010869026	n/a	oval-horizontal.bmp	oval-vertical.bmp	oval-vertical.bmp
230.120663166	1.895207881999994	shape	0.670819044113	1.0	0.8	n/a	n/a	232.015871048	232.019809008	233.015232086	n/a	oval-horizontal.bmp	circle.bmp	circle.bmp
233.125221014	1.885737180999996	shape	0.785719156265	1.0	0.8	n/a	n/a	235.010958195	235.014548063	236.010491133	n/a	oval-horizontal.bmp	oval-horizontal.bmp	oval-vertical.bmp
236.120666027	1.8945090770000093	shape	0.520807981491	1.0	0.8	n/a	n/a	238.015175104	238.018709183	239.014541149	n/a	circle.bmp	circle.bmp	oval-vertical.bmp
242.0928092	1.9221429829999863	face	1.14036297798	1.0	0.8	239.103388071	242.014284134	244.014952183	244.019669056	245.013914108	n/a	20M_FE_O.jpg	21M_FE_O.jpg	21M_FE_O.jpg
245.171610117	1.8435659410000085	face	0.603473901749	1.0	0.8	n/a	n/a	247.015176058	247.018815041	248.014221191	n/a	07F_AN_O.jpg	07F_AN_O.jpg	01F_AN_O.jpg
248.149496078	1.8651001460000032	face	0.805413961411	1.0	0.8	n/a	n/a	250.014596224	250.018209219	251.013879061	n/a	FFZ_102.jpg	FFZ_102.jpg	FFX_139.jpg
251.173481226	1.840843915999983	face	1.11987996101	1.0	0.8	n/a	n/a	253.014325142	253.018279076	254.01357007	n/a	22M_AN_O.jpg	23M_AN_O.jpg	23M_AN_O.jpg
254.14854002	1.865667104999972	face	0.706653118134	1.0	0.8	n/a	n/a	256.014207125	256.018161058	257.013576031	n/a	MAX_233.jpg	MAZ_146.jpg	MAZ_146.jpg
257.17309618	1.8407080169999968	face	0.754239082336	1.0	0.8	n/a	n/a	259.013804197	259.01741004	260.013293028	n/a	15F_FE_O.jpg	15F_FE_O.jpg	16F_FE_O.jpg
263.049900055	1.962991952999971	shape	0.703302145004	1.0	0.8	260.11274004	263.012603045	265.012892008	265.017638206	266.012127161	n/a	oval-horizontal.bmp	oval-horizontal.bmp	oval-vertical.bmp
266.130142212	1.8821029659999908	shape	0.705639123917	1.0	0.8	n/a	n/a	268.012245178	268.016829014	269.01189208	n/a	oval-horizontal.bmp	oval-vertical.bmp	oval-vertical.bmp
269.133602142	1.8789088730000003	shape	0.622077941895	1.0	0.8	n/a	n/a	271.012511015	271.01615715	272.011850119	n/a	circle.bmp	circle.bmp	oval-vertical.bmp
272.13352704	1.878290176999997	shape	0.571411848068	1.0	0.8	n/a	n/a	274.011817217	274.015445232	275.011490107	n/a	circle.bmp	oval-vertical.bmp	oval-vertical.bmp
275.130365133	1.8811678889999823	shape	0.638178110123	1.0	0.8	n/a	n/a	277.011533022	277.01516819	278.010861158	n/a	oval-horizontal.bmp	circle.bmp	circle.bmp
278.132204056	1.8785011770000324	shape	1.25465488434	1.0	0.8	n/a	n/a	280.010705233	280.014450073	281.010630131	n/a	oval-horizontal.bmp	oval-horizontal.bmp	circle.bmp
284.086929083	1.940343141000028	face	0.736963033676	1.0	0.8	281.101598024	284.026182175	286.027272224	286.032035112	287.026774168	n/a	FFZ_18.jpg	FAZ_129.jpg	FAZ_129.jpg
287.183621168	1.842156886999988	face	0.805060863495	1.0	0.8	n/a	n/a	289.025778055	289.029511213	290.025089025	n/a	20M_FE_O.jpg	24M_FE_O.jpg	24M_FE_O.jpg
290.159603119	1.866101026000024	face	0.53599691391	1.0	0.8	n/a	n/a	292.025704145	292.029555082	293.025004148	n/a	FAZ_23.jpg	FAX_25.jpg	FAX_25.jpg
293.178937197	1.846724033000044	face	0.520129203796	1.0	0.8	n/a	n/a	295.02566123	295.029231071	296.025030136	n/a	33M_FE_O.jpg	33M_FE_O.jpg	35M_FE_O.jpg
296.184590101	1.841191053999978	face	0.782985925674	1.0	0.8	n/a	n/a	298.025781155	298.029307127	299.024988174	n/a	01F_AN_O.jpg	01F_AN_O.jpg	02F_AN_O.jpg
299.154954195	1.8702859879999776	face	0.652173995972	1.0	0.8	n/a	n/a	301.025240183	301.029169083	302.024552107	n/a	MFZ_132.jpg	MFZ_132.jpg	MFZ_120.jpg
305.06260705	1.9617381099999989	shape	0.602583885193	0.0	0.8	302.116427183	305.024013042	307.02434516	307.028740168	308.022813082	n/a	oval-horizontal.bmp	oval-vertical.bmp	oval-vertical.bmp
308.137552023	1.886162995999996	shape	0.850031137466	1.0	0.8	n/a	n/a	310.023715019	310.027224064	311.023711205	n/a	circle.bmp	oval-vertical.bmp	oval-vertical.bmp
311.139853001	1.8834900850000047	shape	0.769959926605	1.0	0.8	n/a	n/a	313.023343086	313.02691412	314.022489071	n/a	oval-horizontal.bmp	oval-horizontal.bmp	oval-vertical.bmp
314.138291121	1.885025977999988	shape	0.570734024048	1.0	0.8	n/a	n/a	316.023317099	316.027276039	317.02278018	n/a	oval-horizontal.bmp	oval-horizontal.bmp	circle.bmp
317.138714075	1.8841049669999848	shape	0.60263299942	1.0	0.8	n/a	n/a	319.022819042	319.026316166	320.022049189	n/a	circle.bmp	circle.bmp	oval-vertical.bmp
320.138625145	1.8842768669999828	shape	0.669764995575	1.0	0.8	n/a	n/a	322.022902012	322.026496172	323.022243023	n/a	oval-horizontal.bmp	circle.bmp	circle.bmp
326.105186224	1.9159808160000007	face	1.05373287201	1.0	0.8	323.119064093	326.022253036	328.02116704	328.0257411	329.021544218	n/a	17F_FE_O.jpg	18F_FE_O.jpg	18F_FE_O.jpg
329.175638199	1.8466608520000136	face	0.602436065674	1.0	0.8	n/a	n/a	331.022299051	331.025859118	332.020628214	n/a	42M_AN_O.jpg	43M_AN_O.jpg	43M_AN_O.jpg
332.180407047	1.841284991000009	face	0.769511938095	1.0	0.8	n/a	n/a	334.021692038	334.025246143	335.020578146	n/a	31M_FE_O.jpg	31M_FE_O.jpg	32M_FE_O.jpg
335.158024073	1.8637950420000493	face	0.703104019165	1.0	0.8	n/a	n/a	337.021819115	337.025367022	338.020264149	n/a	FAZ_212.jpg	FFZ_236.jpg	FFZ_236.jpg
338.180736065	1.8395631309999767	face	0.748119115829	1.0	0.8	n/a	n/a	340.020299196	340.024263144	341.019888163	n/a	06F_FE_O.jpg	06F_FE_O.jpg	08F_FE_O.jpg
341.152563095	1.867778063000003	face	0.685087919235	1.0	0.8	n/a	n/a	343.020341158	343.024136066	344.018851995	n/a	MAZ_128.jpg	MAZ_128.jpg	MAX_39.jpg
347.058499098	1.9610879419999487	shape	0.653131961823	1.0	0.8	344.119575024	347.019817114	349.01958704	349.02414012	350.0188272	n/a	circle.bmp	oval-vertical.bmp	oval-vertical.bmp
350.137190104	1.8817629810000085	shape	0.535521030426	1.0	0.8	n/a	n/a	352.018953085	352.022835016	353.01880312	n/a	oval-horizontal.bmp	oval-horizontal.bmp	circle.bmp
353.136028051	1.8827281000000085	shape	0.636564970016	1.0	0.8	n/a	n/a	355.018756151	355.022500038	356.018758059	n/a	oval-horizontal.bmp	oval-vertical.bmp	oval-vertical.bmp
356.140441179	1.8779859549999856	shape	0.633154153824	1.0	0.8	n/a	n/a	358.018427134	358.022226095	359.01793313	n/a	oval-horizontal.bmp	circle.bmp	circle.bmp
359.140721083	1.8777770989999567	shape	0.602581977844	1.0	0.8	n/a	n/a	361.018498182	361.022095203	362.017545223	n/a	oval-horizontal.bmp	oval-horizontal.bmp	oval-vertical.bmp
362.13587904	1.881313084999988	shape	0.63681602478	1.0	0.8	n/a	n/a	364.017192125	364.021100044	365.017224073	n/a	circle.bmp	circle.bmp	oval-vertical.bmp
368.071233034	1.9462771419999847	face	0.721899986267	1.0	0.8	365.116489172	368.016751051	370.017510176	370.022694111	371.016468048	n/a	FFZ_18.jpg	FAZ_129.jpg	FAZ_129.jpg
371.180376053	1.8367769720000524	face	1.22914600372	1.0	0.8	n/a	n/a	373.017153025	373.020732164	374.016253233	n/a	20M_FE_O.jpg	24M_FE_O.jpg	24M_FE_O.jpg
374.153166056	1.8631811140000425	face	0.619647979736	1.0	0.8	n/a	n/a	376.01634717	376.020158052	377.016631126	n/a	FAZ_23.jpg	FAX_25.jpg	FAX_25.jpg
377.180658102	1.8358581069999784	face	0.577483892441	1.0	0.8	n/a	n/a	379.016516209	379.020077229	380.015512228	n/a	33M_FE_O.jpg	33M_FE_O.jpg	35M_FE_O.jpg
380.176883221	1.839949845999968	face	0.593770027161	1.0	0.8	n/a	n/a	382.016833067	382.020561218	383.014697075	n/a	01F_AN_O.jpg	01F_AN_O.jpg	02F_AN_O.jpg
383.150898218	1.8648118969999807	face	0.73636007309	1.0	0.8	n/a	n/a	385.015710115	385.019248009	386.015180111	394.414101124	MFZ_132.jpg	MFZ_132.jpg	MFZ_120.jpg
