onset	duration	trial_type	response_time	accuracy_binarized	tr_seconds	cueStartTime	cueEndTime	trialEndTime	fixStartTime	fixEndTime	runEndTime	stimLeft	stimTop	stimRight
11.0655760765	1.9690380097	shape	1.00372195244	1.0	0.8	8.03189897537	11.0178079605	13.0346140862	13.0391569138	14.0341410637	n/a	oval-horizontal.bmp	oval-horizontal.bmp	oval-vertical.bmp
14.1463930607	1.8761110306000008	shape	1.20320296288	0.0	0.8	n/a	n/a	16.0225040913	16.0261650085	17.0220730305	n/a	oval-horizontal.bmp	oval-vertical.bmp	oval-vertical.bmp
17.1207640171	1.9003179073	shape	0.873811006546	1.0	0.8	n/a	n/a	19.0210819244	19.0246560574	20.0215299129	n/a	circle.bmp	circle.bmp	oval-vertical.bmp
20.1261761189	1.895457983	shape	1.12154102325	1.0	0.8	n/a	n/a	22.0216341019	22.0255219936	23.0204689503	n/a	circle.bmp	oval-vertical.bmp	oval-vertical.bmp
23.1213049889	1.9003241062	shape	0.857201099396	1.0	0.8	n/a	n/a	25.0216290951	25.0252120495	26.0205090046	n/a	oval-horizontal.bmp	circle.bmp	circle.bmp
26.116410017	1.9209361076	shape	1.07600092888	1.0	0.8	n/a	n/a	28.0373461246	28.0409839153	29.0365071297	n/a	oval-horizontal.bmp	oval-horizontal.bmp	circle.bmp
32.1010410786	1.9359688759000024	face	0.872301101685	1.0	0.8	29.1106750965	32.0363149643	34.0370099545	34.0414800644	35.0361449718	n/a	FAZ_23.jpg	FAZ_23.jpg	FAX_43.jpg
35.1772871017	1.8598768711999936	face	0.888924837112	1.0	0.8	n/a	n/a	37.0371639729	37.0407891273	38.0358119011	n/a	26M_FE_O.jpg	26M_FE_O.jpg	27M_FE_O.BMP
38.1598360538	1.876381874099998	face	0.987026929855	1.0	0.8	n/a	n/a	40.0362179279	40.0395860672	41.0354571342	n/a	MFX_16.jpg	MFZ_50.jpg	MFZ_50.jpg
41.1879179478	1.8481750487999944	face	0.872031927109	1.0	0.8	n/a	n/a	43.0360929966	43.0398869514	44.035171032	n/a	09F_AN_O.jpg	09F_AN_O.jpg	10F_AN_O.jpg
44.1729519367	1.8629550933999963	face	0.705276966095	1.0	0.8	n/a	n/a	46.0359070301	46.0394859314	47.0351569653	n/a	38M_AN_O.BMP	39M_AN_O.jpg	39M_AN_O.jpg
47.1583890915	1.8769109249000024	face	1.26954317093	1.0	0.8	n/a	n/a	49.0353000164	49.0388879776	50.034455061	n/a	FFZ_102.jpg	FFX_130.jpg	FFX_130.jpg
53.0715100765	1.9629118443000024	shape	0.855554819107	1.0	0.8	50.1098730564	53.0345749855	55.0344219208	55.0391349792	56.0336561203	n/a	oval-horizontal.bmp	oval-vertical.bmp	oval-vertical.bmp
56.1331300735	1.9010448456000049	shape	0.737752914429	1.0	0.8	n/a	n/a	58.0341749191	58.0377409458	59.0331990719	n/a	circle.bmp	oval-vertical.bmp	oval-vertical.bmp
59.1336529255	1.900364160499997	shape	0.803708076477	1.0	0.8	n/a	n/a	61.034017086	61.0376319885	62.0337591171	n/a	oval-horizontal.bmp	oval-horizontal.bmp	oval-vertical.bmp
62.1366939545	1.896943092299999	shape	0.52117395401	0.0	0.8	n/a	n/a	64.0336370468	64.0373129845	65.0330541134	n/a	oval-horizontal.bmp	oval-horizontal.bmp	circle.bmp
65.1328270435	1.9007358550999955	shape	0.67122387886	1.0	0.8	n/a	n/a	67.0335628986	67.0372021198	68.0325479507	n/a	circle.bmp	circle.bmp	oval-vertical.bmp
68.13291502	1.8992280960000016	shape	0.63764500618	1.0	0.8	n/a	n/a	70.032143116	70.0359070301	71.0316479206	n/a	oval-horizontal.bmp	circle.bmp	circle.bmp
74.12155509	1.911026954600004	face	1.27067399025	1.0	0.8	71.1074810028	74.0316770077	76.0325820446	76.0376179218	77.031496048	n/a	03F_FE_O.jpg	05F_FE_O.jpg	05F_FE_O.jpg
77.1522529125	1.879619121600001	face	0.7539498806	1.0	0.8	n/a	n/a	79.0318720341	79.0354881287	80.0313200951	n/a	FAZ_32.jpg	FAZ_32.jpg	FAX_45.jpg
80.1566500664	1.8752949237999983	face	1.26990199089	1.0	0.8	n/a	n/a	82.0319449902	82.0356669426	83.0309650898	n/a	MAZ_128.jpg	MAZ_101.jpg	MAZ_101.jpg
83.1725931168	1.8587927818000047	face	0.769428014755	1.0	0.8	n/a	n/a	85.0313858986	85.0351281166	86.03074193	n/a	11F_AN_O.jpg	11F_AN_O.jpg	12F_AN_O.jpg
86.1735980511	1.8575000762999991	face	0.685339927673	1.0	0.8	n/a	n/a	88.0310981274	88.0351409912	89.0301201344	n/a	26M_FE_O.jpg	33M_FE_O.jpg	33M_FE_O.jpg
89.1530771255	1.8777358531999937	face	0.735525131226	1.0	0.8	n/a	n/a	91.0308129787	91.0344209671	92.0300750732	n/a	MFZ_132.jpg	MFZ_132.jpg	MFZ_120.jpg
95.0666949749	1.963225126300003	shape	0.851864099503	1.0	0.8	92.1085569859	95.0298399925	97.0299201012	97.0345671177	98.0284490585	n/a	circle.bmp	oval-vertical.bmp	oval-vertical.bmp
98.1309299469	1.8986330031000025	shape	0.820667982101	1.0	0.8	n/a	n/a	100.02956295	100.033592939	101.028712988	n/a	oval-horizontal.bmp	oval-horizontal.bmp	circle.bmp
101.131034136	1.898025989000004	shape	1.06989407539	0.0	0.8	n/a	n/a	103.029060125	103.032661915	104.028207064	n/a	oval-horizontal.bmp	oval-vertical.bmp	oval-vertical.bmp
104.132009983	1.89674115199999	shape	0.620797872543	1.0	0.8	n/a	n/a	106.028751135	106.032474995	107.028063059	n/a	oval-horizontal.bmp	circle.bmp	circle.bmp
107.132563114	1.8957068919999929	shape	0.670927047729	1.0	0.8	n/a	n/a	109.028270006	109.031990051	110.027945042	n/a	oval-horizontal.bmp	oval-horizontal.bmp	oval-vertical.bmp
110.132767916	1.8952569960000003	shape	0.618735790253	1.0	0.8	n/a	n/a	112.028024912	112.0324471	113.027394056	n/a	circle.bmp	circle.bmp	oval-vertical.bmp
116.081535101	1.946266890000004	face	0.721299171448	1.0	0.8	113.109349012	116.026622057	118.027801991	118.032407999	119.026722908	n/a	FAZ_23.jpg	FAZ_23.jpg	FAX_43.jpg
119.160018921	1.8678112030000025	face	0.653414011002	1.0	0.8	n/a	n/a	121.027830124	121.031569958	122.026515007	n/a	26M_FE_O.jpg	26M_FE_O.jpg	27M_FE_O.BMP
122.151113987	1.8744289870000013	face	0.587203025818	1.0	0.8	n/a	n/a	124.025542974	124.029240131	125.025836945	n/a	MFZ_50.jpg	MFZ_50.jpg	MFX_16.jpg
125.17395997	1.853028058999996	face	0.936654806137	1.0	0.8	n/a	n/a	127.026988029	127.030556917	128.025768995	n/a	10F_AN_O.jpg	09F_AN_O.jpg	09F_AN_O.jpg
128.163698912	1.862736224999992	face	0.886038064957	1.0	0.8	n/a	n/a	130.026435137	130.030211926	131.02572298	n/a	38M_AN_O.BMP	39M_AN_O.jpg	39M_AN_O.jpg
131.151937008	1.874058007999992	face	0.930704116821	1.0	0.8	n/a	n/a	133.025995016	133.029770136	134.024900913	n/a	FFZ_102.jpg	FFX_130.jpg	FFX_130.jpg
137.062875986	1.9622230530000024	shape	0.7863509655	1.0	0.8	134.107409	137.025449038	139.025099039	139.02995491	140.024763107	n/a	oval-horizontal.bmp	oval-horizontal.bmp	oval-vertical.bmp
140.130412102	1.8943989269999968	shape	0.686571836472	1.0	0.8	n/a	n/a	142.024811029	142.028497934	143.024212122	n/a	oval-horizontal.bmp	oval-vertical.bmp	oval-vertical.bmp
143.134253025	1.8901948930000003	shape	0.59473991394	1.0	0.8	n/a	n/a	145.024447918	145.028129101	146.023559093	n/a	circle.bmp	circle.bmp	oval-vertical.bmp
146.131191015	1.893129110999979	shape	0.687307834625	1.0	0.8	n/a	n/a	148.024320126	148.028355122	149.023425102	n/a	circle.bmp	oval-vertical.bmp	oval-vertical.bmp
149.130959988	1.8925759789999856	shape	0.520649909973	1.0	0.8	n/a	n/a	151.023535967	151.027271032	152.022824049	n/a	oval-horizontal.bmp	circle.bmp	circle.bmp
152.135905981	1.8875019550000047	shape	0.745198011398	1.0	0.8	n/a	n/a	154.023407936	154.027076006	155.022612095	n/a	oval-horizontal.bmp	oval-horizontal.bmp	circle.bmp
158.098359108	1.925383805999985	face	1.11045598984	1.0	0.8	155.108392954	158.02246809	160.023742914	160.028906107	161.022262096	n/a	20M_FE_O.jpg	21M_FE_O.jpg	21M_FE_O.jpg
161.178617954	1.8444640639999927	face	0.885913133621	1.0	0.8	n/a	n/a	163.023082018	163.026729107	164.020950079	n/a	01F_AN_O.jpg	07F_AN_O.jpg	07F_AN_O.jpg
164.152390003	1.869909048000011	face	0.927273035049	1.0	0.8	n/a	n/a	166.022299051	166.025926113	167.021966934	n/a	FFX_139.jpg	FFZ_102.jpg	FFZ_102.jpg
167.176203012	1.8457379349999885	face	0.769309997559	1.0	0.8	n/a	n/a	169.021940947	169.025344133	170.020846128	n/a	23M_AN_O.jpg	23M_AN_O.jpg	22M_AN_O.jpg
170.151300907	1.86965417899998	face	0.608972072601	1.0	0.8	n/a	n/a	172.020955086	172.024612904	173.0207901	n/a	MAZ_146.jpg	MAZ_146.jpg	MAX_233.jpg
173.168968916	1.852279185999976	face	0.909263849258	1.0	0.8	n/a	n/a	175.021248102	175.024823904	176.020695925	n/a	15F_FE_O.jpg	15F_FE_O.jpg	16F_FE_O.jpg
179.075542927	1.9615261550000007	shape	0.617884874344	1.0	0.8	176.104973078	179.03677702	181.037069082	181.041517973	182.036459923	n/a	oval-horizontal.bmp	oval-vertical.bmp	oval-vertical.bmp
182.144558907	1.891867160000004	shape	0.586583852768	1.0	0.8	n/a	n/a	184.036426067	184.040050983	185.03607893	n/a	circle.bmp	oval-vertical.bmp	oval-vertical.bmp
185.143306017	1.8934199810000223	shape	0.719974994659	1.0	0.8	n/a	n/a	187.036725998	187.040370941	188.035571098	n/a	oval-horizontal.bmp	oval-horizontal.bmp	oval-vertical.bmp
188.146670103	1.8893029689999992	shape	0.707671880722	1.0	0.8	n/a	n/a	190.035973072	190.039623976	191.035356998	n/a	oval-horizontal.bmp	oval-horizontal.bmp	circle.bmp
191.143826962	1.8917429440000149	shape	0.753502130508	1.0	0.8	n/a	n/a	193.035569906	193.039252043	194.035270929	n/a	circle.bmp	circle.bmp	oval-vertical.bmp
194.144661903	1.8910920619999845	shape	0.906554937363	1.0	0.8	n/a	n/a	196.035753965	196.039415121	197.035457134	n/a	oval-horizontal.bmp	circle.bmp	circle.bmp
200.091521025	1.943497895999997	face	0.654273986816	1.0	0.8	197.122705936	200.033900023	202.035018921	202.03945899	203.034825087	n/a	FFX_54.jpg	FFX_54.jpg	FAX_51.jpg
203.183871031	1.850637913000014	face	0.808076858521	1.0	0.8	n/a	n/a	205.034508944	205.03809309	206.033669949	n/a	40M_FE_O.BMP	41M_FE_O.jpg	41M_FE_O.jpg
206.180326939	1.854248046999999	face	0.73952794075	1.0	0.8	n/a	n/a	208.034574986	208.03817606	209.033368111	n/a	29M_AN_O.jpg	29M_AN_O.jpg	28M_AN_O.jpg
209.160974979	1.872699976000007	face	0.970403909683	1.0	0.8	n/a	n/a	211.033674955	211.037349939	212.033562899	n/a	FFZ_18.jpg	FFZ_29.jpg	FFZ_29.jpg
212.189846039	1.8437709810000056	face	1.10272407532	1.0	0.8	n/a	n/a	214.03361702	214.037499905	215.032483101	n/a	19F_AN_O.jpg	19F_AN_O.jpg	09F_AN_O.jpg
215.163231134	1.870296002000004	face	0.669951200485	1.0	0.8	n/a	n/a	217.033527136	217.037111044	218.032790899	n/a	MFZ_132.jpg	MFZ_7.jpg	MFZ_7.jpg
221.069257021	1.963841914999989	shape	0.654596805573	1.0	0.8	218.121701002	221.032195091	223.033098936	223.037564993	224.032156944	n/a	circle.bmp	oval-vertical.bmp	oval-vertical.bmp
224.145023108	1.887203930999988	shape	0.837931871414	1.0	0.8	n/a	n/a	226.032227039	226.036001921	227.03113699	n/a	oval-horizontal.bmp	oval-horizontal.bmp	circle.bmp
227.145205021	1.8866028779999908	shape	0.637640953064	1.0	0.8	n/a	n/a	229.031807899	229.035210133	230.030877113	n/a	oval-horizontal.bmp	oval-vertical.bmp	oval-vertical.bmp
230.144119024	1.8876400000000049	shape	0.720348834991	1.0	0.8	n/a	n/a	232.031759024	232.035332918	233.031227112	n/a	oval-horizontal.bmp	circle.bmp	circle.bmp
233.144457102	1.8867678640000063	shape	1.07015013695	1.0	0.8	n/a	n/a	235.031224966	235.034908056	236.030364037	n/a	oval-horizontal.bmp	oval-horizontal.bmp	oval-vertical.bmp
236.142762899	1.888445138999998	shape	1.12079191208	1.0	0.8	n/a	n/a	238.031208038	238.034788132	239.029891968	n/a	circle.bmp	circle.bmp	oval-vertical.bmp
242.10959506	1.9207170009999857	face	1.28564310074	1.0	0.8	239.119839907	242.02936697	244.030312061	244.035207987	245.029314995	n/a	20M_FE_O.jpg	21M_FE_O.jpg	21M_FE_O.jpg
245.194080114	1.835955858999995	face	0.869580030441	1.0	0.8	n/a	n/a	247.030035973	247.033668041	248.029238939	n/a	07F_AN_O.jpg	07F_AN_O.jpg	01F_AN_O.jpg
248.160771132	1.868636845999987	face	0.667999982834	1.0	0.8	n/a	n/a	250.029407978	250.033005953	251.028747082	n/a	FFZ_102.jpg	FFZ_102.jpg	FFX_139.jpg
251.186367989	1.843429088000022	face	0.721166133881	1.0	0.8	n/a	n/a	253.029797077	253.033575058	254.028338909	n/a	22M_AN_O.jpg	23M_AN_O.jpg	23M_AN_O.jpg
254.165909052	1.8630969520000065	face	0.569004058838	1.0	0.8	n/a	n/a	256.029006004	256.032967091	257.028512955	n/a	MAX_233.jpg	MAZ_146.jpg	MAZ_146.jpg
257.190221071	1.83838295999999	face	0.68610906601	1.0	0.8	n/a	n/a	259.028604031	259.032205105	260.027593136	n/a	15F_FE_O.jpg	15F_FE_O.jpg	16F_FE_O.jpg
263.06605196	1.9615969660000017	shape	0.668523073196	1.0	0.8	260.119425058	263.027584076	265.027648926	265.032104969	266.027293921	n/a	oval-horizontal.bmp	oval-horizontal.bmp	oval-vertical.bmp
266.140487909	1.887005090999992	shape	1.18732905388	1.0	0.8	n/a	n/a	268.027493	268.03187108	269.026721001	n/a	oval-horizontal.bmp	oval-vertical.bmp	oval-vertical.bmp
269.145262003	1.882048129999987	shape	0.687435150146	1.0	0.8	n/a	n/a	271.027310133	271.030874968	272.026024103	n/a	circle.bmp	circle.bmp	oval-vertical.bmp
272.141071081	1.8858008390000125	shape	0.736418962479	1.0	0.8	n/a	n/a	274.02687192	274.030467033	275.025898933	n/a	circle.bmp	oval-vertical.bmp	oval-vertical.bmp
275.144659042	1.8813879489999863	shape	0.586751937866	1.0	0.8	n/a	n/a	277.026046991	277.029695034	278.025722027	n/a	oval-horizontal.bmp	circle.bmp	circle.bmp
278.141012907	1.8847050669999703	shape	1.02035117149	1.0	0.8	n/a	n/a	280.025717974	280.029664993	281.025408983	n/a	oval-horizontal.bmp	oval-horizontal.bmp	circle.bmp
284.082876921	1.9432220460000167	face	0.803886175156	1.0	0.8	281.119089127	284.024994135	286.026098967	286.030599117	287.024662018	n/a	FFZ_18.jpg	FAZ_129.jpg	FAZ_129.jpg
287.19167304	1.8335049159999808	face	1.31948900223	1.0	0.8	n/a	n/a	289.025177956	289.028815985	290.024512053	n/a	20M_FE_O.jpg	24M_FE_O.jpg	24M_FE_O.jpg
290.164637089	1.8600900170000043	face	0.670212984085	1.0	0.8	n/a	n/a	292.024727106	292.028371096	293.024701118	n/a	FAZ_23.jpg	FAX_25.jpg	FAX_25.jpg
293.185355902	1.8391489979999849	face	0.664041996002	1.0	0.8	n/a	n/a	295.0245049	295.02841711	296.023306131	n/a	33M_FE_O.jpg	33M_FE_O.jpg	35M_FE_O.jpg
296.183367014	1.8415451050000229	face	0.897783994675	1.0	0.8	n/a	n/a	298.024912119	298.028557062	299.023236036	n/a	01F_AN_O.jpg	01F_AN_O.jpg	02F_AN_O.jpg
299.16238308	1.86151385300002	face	0.904250860214	1.0	0.8	n/a	n/a	301.023896933	301.027513027	302.022957087	n/a	MFZ_132.jpg	MFZ_132.jpg	MFZ_120.jpg
305.060908079	1.962776899000005	shape	0.853082180023	1.0	0.8	302.119642973	305.022957087	307.023684978	307.028333902	308.02312398	n/a	oval-horizontal.bmp	oval-vertical.bmp	oval-vertical.bmp
308.142946005	1.8796050550000127	shape	0.986936092377	1.0	0.8	n/a	n/a	310.02255106	310.026144028	311.021930933	n/a	circle.bmp	oval-vertical.bmp	oval-vertical.bmp
311.141901016	1.8803720479999697	shape	0.669316053391	1.0	0.8	n/a	n/a	313.022273064	313.025967121	314.021450996	n/a	oval-horizontal.bmp	oval-horizontal.bmp	oval-vertical.bmp
314.141742945	1.8802070610000208	shape	0.686962842941	1.0	0.8	n/a	n/a	316.021950006	316.025959015	317.02188611	n/a	oval-horizontal.bmp	oval-horizontal.bmp	circle.bmp
317.14063406	1.8804199690000016	shape	0.719894170761	1.0	0.8	n/a	n/a	319.021054029	319.024724007	320.020544052	n/a	circle.bmp	circle.bmp	oval-vertical.bmp
320.138919115	1.8825337889999787	shape	0.656070947647	1.0	0.8	n/a	n/a	322.021452904	322.025229931	323.020442963	n/a	oval-horizontal.bmp	circle.bmp	circle.bmp
326.123798132	1.8977618220000068	face	0.636792898178	1.0	0.8	323.116138935	326.037354946	328.021559954	328.026494026	329.0205369	n/a	17F_FE_O.jpg	18F_FE_O.jpg	18F_FE_O.jpg
329.187391043	1.849745035000012	face	0.593962907791	1.0	0.8	n/a	n/a	331.037136078	331.040734053	332.036866903	n/a	42M_AN_O.jpg	43M_AN_O.jpg	43M_AN_O.jpg
332.201600075	1.8351788520000127	face	0.62797498703	1.0	0.8	n/a	n/a	334.036778927	334.04046011	335.035860062	n/a	31M_FE_O.jpg	31M_FE_O.jpg	32M_FE_O.jpg
335.176631927	1.860188007999966	face	0.620066165924	1.0	0.8	n/a	n/a	337.036819935	337.040399075	338.036092997	n/a	FAZ_212.jpg	FFZ_236.jpg	FFZ_236.jpg
338.201404095	1.8348438740000008	face	0.659635066986	1.0	0.8	n/a	n/a	340.036247969	340.039885044	341.035665989	n/a	06F_FE_O.jpg	06F_FE_O.jpg	08F_FE_O.jpg
341.177747011	1.8579349519999937	face	0.624504804611	1.0	0.8	n/a	n/a	343.035681963	343.039302111	344.034975052	n/a	MAZ_128.jpg	MAZ_128.jpg	MAX_39.jpg
347.072721004	1.962110996999968	shape	1.0013551712	1.0	0.8	344.135823965	347.034608126	349.034832001	349.039242983	350.034219027	n/a	circle.bmp	oval-vertical.bmp	oval-vertical.bmp
350.155081987	1.879197121000004	shape	0.703782081604	1.0	0.8	n/a	n/a	352.034279108	352.037876129	353.033936024	n/a	oval-horizontal.bmp	oval-horizontal.bmp	circle.bmp
353.154770136	1.8793079849999683	shape	0.742102146149	1.0	0.8	n/a	n/a	355.034078121	355.037730932	356.033632994	n/a	oval-horizontal.bmp	oval-vertical.bmp	oval-vertical.bmp
356.158306122	1.875484943000004	shape	0.68770980835	1.0	0.8	n/a	n/a	358.033791065	358.037650108	359.033210993	n/a	oval-horizontal.bmp	circle.bmp	circle.bmp
359.154805899	1.879064083000003	shape	0.941473960876	1.0	0.8	n/a	n/a	361.033869982	361.03747201	362.032836914	n/a	oval-horizontal.bmp	oval-horizontal.bmp	oval-vertical.bmp
362.156570911	1.8768231869999568	shape	0.586018800735	1.0	0.8	n/a	n/a	364.033394098	364.036967993	365.032607079	n/a	circle.bmp	circle.bmp	oval-vertical.bmp
368.090498924	1.942489147000004	face	0.869137048721	1.0	0.8	365.132079124	368.033111095	370.032988071	370.037774086	371.032436132	n/a	FFZ_18.jpg	FAZ_129.jpg	FAZ_129.jpg
371.200829983	1.8316519260000064	face	0.52348780632	0.0	0.8	n/a	n/a	373.032481909	373.036060095	374.031431913	n/a	20M_FE_O.jpg	24M_FE_O.jpg	24M_FE_O.jpg
374.172677994	1.859719990999963	face	0.636484146118	1.0	0.8	n/a	n/a	376.032397985	376.03599	377.031523943	n/a	FAZ_23.jpg	FAX_25.jpg	FAX_25.jpg
377.194739103	1.8370540149999783	face	0.556055784225	1.0	0.8	n/a	n/a	379.031793118	379.035412073	380.031178951	n/a	33M_FE_O.jpg	33M_FE_O.jpg	35M_FE_O.jpg
380.200627089	1.8308899399999632	face	0.589640855789	1.0	0.8	n/a	n/a	382.031517029	382.035191059	383.031018972	n/a	01F_AN_O.jpg	01F_AN_O.jpg	02F_AN_O.jpg
383.180073023	1.8508119580000084	face	1.03708386421	1.0	0.8	n/a	n/a	385.030884981	385.034755945	386.03012991	394.429239035	MFZ_132.jpg	MFZ_132.jpg	MFZ_120.jpg
