onset	duration	trial_type	response_time	accuracy_binarized	tr_seconds	cueStartTime	cueEndTime	trialEndTime	fixStartTime	fixEndTime	runEndTime	stimLeft	stimTop	stimRight
11.094243049621582	1.9674658775329568	shape	1.30035614967	1.0	0.8	8.052495956420898	11.044476985931396	13.06170892715454	13.093966007232666	14.094455003738403	n/a	oval-horizontal.bmp	oval-horizontal.bmp	oval-vertical.bmp
14.177456855773926	1.9007461071014404	shape	0.73347902298	1.0	0.8	n/a	n/a	16.078202962875366	16.11072087287903	17.077919006347656	n/a	oval-horizontal.bmp	oval-vertical.bmp	oval-vertical.bmp
17.1774799823761	1.901067972183231	shape	0.833558082581	1.0	0.8	n/a	n/a	19.07854795455933	19.11077690124512	20.0778648853302	n/a	circle.bmp	circle.bmp	oval-vertical.bmp
20.17750096321106	1.900461912155152	shape	0.600322961807	1.0	0.8	n/a	n/a	22.07796287536621	22.11088800430298	23.07779788970948	n/a	circle.bmp	oval-vertical.bmp	oval-vertical.bmp
23.16085386276245	1.934478044509888	shape	0.800198078156	1.0	0.8	n/a	n/a	25.09533190727234	25.12746500968933	26.09452700614929	n/a	oval-horizontal.bmp	circle.bmp	circle.bmp
26.17764592170716	1.9007430076599088	shape	1.00031590462	1.0	0.8	n/a	n/a	28.078388929367065	28.110821962356567	29.0780189037323	n/a	oval-horizontal.bmp	oval-horizontal.bmp	circle.bmp
32.1776978969574	1.902327060699463	face	0.801975011826	1.0	0.8	29.136364936828613	32.09473490715027	34.08002495765686	34.111181020736694	35.080402851104736	n/a	FAZ_23.jpg	FAZ_23.jpg	FAX_43.jpg
35.21159505844116	1.8683578968048096	face	0.932778120041	1.0	0.8	n/a	n/a	37.07995295524597	37.11138606071472	38.08041596412659	n/a	26M_FE_O.jpg	26M_FE_O.jpg	27M_FE_O.BMP
38.1948459148407	1.9019310474395752	face	0.833174943924	1.0	0.8	n/a	n/a	40.09677696228027	40.12789607048035	41.0637309551239	n/a	MFX_16.jpg	MFZ_50.jpg	MFZ_50.jpg
41.19504189491272	1.901719093322754	face	0.699611902237	1.0	0.8	n/a	n/a	43.096760988235474	43.12807297706604	44.06387686729431	n/a	09F_AN_O.jpg	09F_AN_O.jpg	10F_AN_O.jpg
44.19491195678711	1.901845932006836	face	0.666133880615	1.0	0.8	n/a	n/a	46.096757888793945	46.127946853637695	47.06381487846375	n/a	38M_AN_O.BMP	39M_AN_O.jpg	39M_AN_O.jpg
47.17823791503906	1.9017951488494875	face	1.16630911827	1.0	0.8	n/a	n/a	49.08003306388855	49.111454010009766	50.08056998252869	n/a	FFZ_102.jpg	FFX_130.jpg	FFX_130.jpg
53.12825798988342	1.935610055923462	shape	0.633590936661	1.0	0.8	50.125913858413696	53.08023691177368	55.063868045806885	55.09466600418091	56.06398296356201	n/a	oval-horizontal.bmp	oval-vertical.bmp	oval-vertical.bmp
56.16148805618286	1.902379989624024	shape	0.999963998795	1.0	0.8	n/a	n/a	58.063868045806885	58.09467887878418	59.06397485733032	n/a	circle.bmp	oval-vertical.bmp	oval-vertical.bmp
59.14500689506531	1.9355900287628167	shape	1.09985589981	1.0	0.8	n/a	n/a	61.080596923828125	61.111305952072144	62.08059501647949	n/a	oval-horizontal.bmp	oval-horizontal.bmp	oval-vertical.bmp
62.16153693199158	1.902673959732056	shape	0.666581869125	0.0	0.8	n/a	n/a	64.06421089172363	64.09477400779724	65.06398701667786	n/a	oval-horizontal.bmp	oval-horizontal.bmp	circle.bmp
65.14506888389587	1.9354009628295896	shape	0.833081960678	1.0	0.8	n/a	n/a	67.08046984672546	67.11133289337158	68.08064889907837	n/a	circle.bmp	circle.bmp	oval-vertical.bmp
68.16157984733582	1.902703046798706	shape	0.733162164688	1.0	0.8	n/a	n/a	70.06428289413452	70.09484195709229	71.06422400474548	n/a	oval-horizontal.bmp	circle.bmp	circle.bmp
74.1785409450531	1.9019570350646973	face	0.966706991196	1.0	0.8	71.11919689178467	74.0803849697113	76.0804979801178	76.11142206192017	77.08076405525208	n/a	03F_FE_O.jpg	05F_FE_O.jpg	05F_FE_O.jpg
77.19529891014099	1.9017040729522705	face	0.79939699173	1.0	0.8	n/a	n/a	79.09700298309326	79.12818789482117	80.0641930103302	n/a	FAZ_32.jpg	FAZ_32.jpg	FAX_45.jpg
80.1784360408783	1.902012825012207	face	1.23268890381	1.0	0.8	n/a	n/a	82.0804488658905	82.1114730834961	83.08083200454712	n/a	MAZ_128.jpg	MAZ_101.jpg	MAZ_101.jpg
83.2121250629425	1.868163824081421	face	0.93269610405	1.0	0.8	n/a	n/a	85.08028888702393	85.11155605316162	86.08094501495361	n/a	11F_AN_O.jpg	11F_AN_O.jpg	12F_AN_O.jpg
86.22856593132019	1.835371017456055	face	0.866161108017	1.0	0.8	n/a	n/a	88.06393694877625	88.09497690200806	89.06432294845581	n/a	26M_FE_O.jpg	33M_FE_O.jpg	33M_FE_O.jpg
89.17839002609253	1.9020018577575684	face	0.799702882767	1.0	0.8	n/a	n/a	91.0803918838501	91.11154389381409	92.08098006248474	n/a	MFZ_132.jpg	MFZ_132.jpg	MFZ_120.jpg
95.11178088188171	1.9360439777374268	shape	0.567154169083	1.0	0.8	92.13679003715517	95.06389784812929	97.04782485961914	97.0783109664917	98.080904006958	n/a	circle.bmp	oval-vertical.bmp	oval-vertical.bmp
98.16181206703186	1.9027049541473389	shape	0.600096940994	1.0	0.8	n/a	n/a	100.0645170211792	100.09504890441896	101.06443190574646	n/a	oval-horizontal.bmp	oval-horizontal.bmp	circle.bmp
101.1619749069214	1.9026629924774028	shape	0.566753864288	1.0	0.8	n/a	n/a	103.0646378993988	103.09512305259705	104.06435585021973	n/a	oval-horizontal.bmp	oval-vertical.bmp	oval-vertical.bmp
104.16185092926024	1.9026241302490376	shape	0.766484975815	1.0	0.8	n/a	n/a	106.06447505950928	106.09522891044617	107.06437492370604	n/a	oval-horizontal.bmp	circle.bmp	circle.bmp
107.16208600997923	1.902576923370361	shape	0.833611965179	1.0	0.8	n/a	n/a	109.0646629333496	109.09513688087463	110.06445002555849	n/a	oval-horizontal.bmp	oval-horizontal.bmp	oval-vertical.bmp
110.16209602355956	1.902240037918105	shape	0.666609048843	1.0	0.8	n/a	n/a	112.06433606147766	112.09512495994568	113.06450700759888	n/a	circle.bmp	circle.bmp	oval-vertical.bmp
116.1452820301056	1.9356479644775104	face	0.76654291153	1.0	0.8	113.12166500091551	116.08070492744446	118.08092999458312	118.11184406280518	119.08108496665956	n/a	FAZ_23.jpg	FAZ_23.jpg	FAX_43.jpg
119.2123908996582	1.8682861328125	face	0.999316930771	1.0	0.8	n/a	n/a	121.0806770324707	121.11173701286316	122.08114290237428	n/a	26M_FE_O.jpg	26M_FE_O.jpg	27M_FE_O.BMP
122.19549107551576	1.868524789810152	face	0.666335821152	1.0	0.8	n/a	n/a	124.06401586532591	124.09518885612488	125.06463193893433	n/a	MFZ_50.jpg	MFZ_50.jpg	MFX_16.jpg
125.21212601661682	1.868793010711656	face	0.899431943893	1.0	0.8	n/a	n/a	127.08091902732848	127.11194705963136	128.0811939239502	n/a	10F_AN_O.jpg	09F_AN_O.jpg	09F_AN_O.jpg
128.21221804618835	1.868716001510592	face	0.632788896561	1.0	0.8	n/a	n/a	130.08093404769895	130.1119430065155	131.0811848640442	n/a	38M_AN_O.BMP	39M_AN_O.jpg	39M_AN_O.jpg
131.19539284706116	1.8686602115631104	face	0.833098888397	1.0	0.8	n/a	n/a	133.06405305862427	133.09524607658386	134.06472396850586	n/a	FFZ_102.jpg	FFX_130.jpg	FFX_130.jpg
137.12893199920654	1.935657978057861	shape	0.766863822937	1.0	0.8	134.12412405014038	137.0807900428772	139.0645899772644	139.0952820777893	140.06469893455505	n/a	oval-horizontal.bmp	oval-horizontal.bmp	oval-vertical.bmp
140.16228199005127	1.9026720523834229	shape	0.499817848206	1.0	0.8	n/a	n/a	142.0649540424347	142.09538388252258	143.0647430419922	n/a	oval-horizontal.bmp	oval-vertical.bmp	oval-vertical.bmp
143.16231393814087	1.9021201133728027	shape	0.633061170578	1.0	0.8	n/a	n/a	145.06443405151367	145.09535193443298	146.06477403640747	n/a	circle.bmp	circle.bmp	oval-vertical.bmp
146.16233587265015	1.902347087860108	shape	0.499887943268	1.0	0.8	n/a	n/a	148.06468296051025	148.09538292884827	149.06479287147522	n/a	circle.bmp	oval-vertical.bmp	oval-vertical.bmp
149.16236996650696	1.902066946029663	shape	0.699717998505	1.0	0.8	n/a	n/a	151.06443691253662	151.0954020023346	152.0647850036621	n/a	oval-horizontal.bmp	circle.bmp	circle.bmp
152.1623978614807	1.902225017547608	shape	0.666934013367	1.0	0.8	n/a	n/a	154.06462287902832	154.09560585021973	155.06480503082275	n/a	oval-horizontal.bmp	oval-horizontal.bmp	circle.bmp
158.17906403541565	1.9019579887390137	face	0.700171947479	1.0	0.8	155.1215319633484	158.08115696907043	160.08102202415466	160.11229395866394	161.08135390281677	n/a	20M_FE_O.jpg	21M_FE_O.jpg	21M_FE_O.jpg
161.21229195594788	1.868683099746704	face	0.766496181488	1.0	0.8	n/a	n/a	163.08097505569458	163.11234498023987	164.0814208984375	n/a	01F_AN_O.jpg	07F_AN_O.jpg	07F_AN_O.jpg
164.19581198692322	1.868521928787232	face	0.899446964264	1.0	0.8	n/a	n/a	166.06433391571045	166.0954930782318	167.06490206718445	n/a	FFX_139.jpg	FFZ_102.jpg	FFZ_102.jpg
167.2126169204712	1.868350982666016	face	0.666182994843	1.0	0.8	n/a	n/a	169.0809679031372	169.1121220588684	170.0814778804779	n/a	23M_AN_O.jpg	23M_AN_O.jpg	22M_AN_O.jpg
170.19610905647278	1.868541955947848	face	0.899337053299	1.0	0.8	n/a	n/a	172.06465101242063	172.0957388877869	173.06494688987732	n/a	MAZ_146.jpg	MAZ_146.jpg	MAX_233.jpg
173.21250796318054	1.8689429759979248	face	1.06615209579	1.0	0.8	n/a	n/a	175.08145093917847	175.11231303215027	176.0815179347992	n/a	15F_FE_O.jpg	15F_FE_O.jpg	16F_FE_O.jpg
179.12933087348938	1.935551166534424	shape	0.700625896454	1.0	0.8	176.135892868042	179.06472206115723	181.0648820400238	181.09559297561648	182.06484389305115	n/a	oval-horizontal.bmp	oval-vertical.bmp	oval-vertical.bmp
182.16271591186523	1.9021730422973635	shape	0.566487073898	1.0	0.8	n/a	n/a	184.0648889541626	184.0956499576569	185.0648798942566	n/a	circle.bmp	oval-vertical.bmp	oval-vertical.bmp
185.16245102882385	1.9024388790130613	shape	0.600121021271	1.0	0.8	n/a	n/a	187.0648899078369	187.09585785865784	188.064945936203	n/a	oval-horizontal.bmp	oval-horizontal.bmp	oval-vertical.bmp
188.1626410484314	1.9022479057312007	shape	0.833245038986	1.0	0.8	n/a	n/a	190.0648889541626	190.095862865448	191.06495904922485	n/a	oval-horizontal.bmp	oval-horizontal.bmp	circle.bmp
191.16277289390564	1.9019839763641075	shape	0.6668009758	1.0	0.8	n/a	n/a	193.0647568702697	193.09570288658145	194.0651249885559	n/a	circle.bmp	circle.bmp	oval-vertical.bmp
194.162693977356	1.9022600650786785	shape	0.59974193573	1.0	0.8	n/a	n/a	196.0649540424347	196.09571886062625	197.0649840831757	n/a	oval-horizontal.bmp	circle.bmp	circle.bmp
200.1627440452576	1.901907920837374	face	0.699729919434	1.0	0.8	197.11690187454224	200.0813879966736	202.06465196609497	202.0957448482513	203.06522393226624	n/a	FFX_54.jpg	FFX_54.jpg	FAX_51.jpg
203.21291589736936	1.868302106857328	face	0.999716997147	1.0	0.8	n/a	n/a	205.08121800422668	205.11245203018188	206.0817148685456	n/a	40M_FE_O.BMP	41M_FE_O.jpg	41M_FE_O.jpg
206.2127649784088	1.8687009811401083	face	0.766055822372	1.0	0.8	n/a	n/a	208.0814659595489	208.1124219894409	209.0816900730133	n/a	29M_AN_O.jpg	29M_AN_O.jpg	28M_AN_O.jpg
209.1961350440979	1.86855387687686	face	0.533066987991	1.0	0.8	n/a	n/a	211.0646889209748	211.09582495689392	212.0651500225067	n/a	FFZ_18.jpg	FFZ_29.jpg	FFZ_29.jpg
212.21316385269165	1.868146181106596	face	0.766133069992	1.0	0.8	n/a	n/a	214.08131003379825	214.1125180721283	215.0817968845368	n/a	19F_AN_O.jpg	19F_AN_O.jpg	09F_AN_O.jpg
215.1960129737854	1.8686869144439693	face	0.566285133362	1.0	0.8	n/a	n/a	217.06469988822937	217.0960578918457	218.06511902809143	n/a	MFZ_132.jpg	MFZ_7.jpg	MFZ_7.jpg
221.1293668746948	1.9362580776214884	shape	0.533584117889	1.0	0.8	218.11834287643435	221.0814950466156	223.06562495231628	223.0960350036621	224.0651519298553	n/a	circle.bmp	oval-vertical.bmp	oval-vertical.bmp
224.1628839969635	1.9022319316864007	shape	0.53312587738	1.0	0.8	n/a	n/a	226.0651159286499	226.0959439277649	227.06525588035583	n/a	oval-horizontal.bmp	oval-horizontal.bmp	circle.bmp
227.1626870632172	1.9025149345397665	shape	0.466544151306	1.0	0.8	n/a	n/a	229.06520199775696	229.09596800804127	230.06519508361816	n/a	oval-horizontal.bmp	oval-vertical.bmp	oval-vertical.bmp
230.16294598579407	1.902277946472168	shape	0.633050918579	1.0	0.8	n/a	n/a	232.06522393226624	232.09614491462708	233.06527996063232	n/a	oval-horizontal.bmp	circle.bmp	circle.bmp
233.16280698776245	1.9023509025574008	shape	1.13322901726	1.0	0.8	n/a	n/a	235.06515789031985	235.09600400924683	236.0653669834137	n/a	oval-horizontal.bmp	oval-horizontal.bmp	oval-vertical.bmp
236.16298007965088	1.9020957946777344	shape	0.666402101517	1.0	0.8	n/a	n/a	238.0650758743286	238.09603595733645	239.0653529167176	n/a	circle.bmp	circle.bmp	oval-vertical.bmp
242.17988991737369	1.9022729396820068	face	0.933073043823	1.0	0.8	239.1266548633576	242.0816259384156	244.0821628570557	244.11275100708008	245.08214902877808	n/a	20M_FE_O.jpg	21M_FE_O.jpg	21M_FE_O.jpg
245.22956204414368	1.835424900054932	face	0.766259908676	1.0	0.8	n/a	n/a	247.0649869441986	247.09627294540405	248.0654089450836	n/a	07F_AN_O.jpg	07F_AN_O.jpg	01F_AN_O.jpg
248.1965429782868	1.8687338829040243	face	0.699565887451	1.0	0.8	n/a	n/a	250.0652768611908	250.09615206718445	251.0653519630432	n/a	FFZ_102.jpg	FFZ_102.jpg	FFX_139.jpg
251.2131519317627	1.8686659336090088	face	0.8495165109634999	0.0	0.8	n/a	n/a	253.0818178653717	253.1128420829773	254.08222198486328	n/a	22M_AN_O.jpg	23M_AN_O.jpg	23M_AN_O.jpg
254.2135019302368	1.8682260513305948	face	0.566051959991	1.0	0.8	n/a	n/a	256.0817279815674	256.11276292800903	257.0822160243988	n/a	MAX_233.jpg	MAZ_146.jpg	MAZ_146.jpg
257.2297649383545	1.835220098495484	face	0.699567079544	1.0	0.8	n/a	n/a	259.06498503685	259.0963718891144	260.0655839443207	n/a	15F_FE_O.jpg	15F_FE_O.jpg	16F_FE_O.jpg
263.129930973053	1.936064958572388	shape	0.600276947021	1.0	0.8	260.1285810470581	263.0652298927307	265.06599593162537	265.09624791145325	266.065486907959	n/a	oval-horizontal.bmp	oval-horizontal.bmp	oval-vertical.bmp
266.1632318496704	1.902283191680908	shape	0.533355951309	1.0	0.8	n/a	n/a	268.0655150413513	268.0962688922882	269.06566095352173	n/a	oval-horizontal.bmp	oval-vertical.bmp	oval-vertical.bmp
269.16323685646057	1.9026110172271729	shape	0.532977104187	1.0	0.8	n/a	n/a	271.06584787368774	271.09633207321167	272.0655529499054	n/a	circle.bmp	circle.bmp	oval-vertical.bmp
272.1632459163666	1.9022150039672847	shape	0.633632898331	1.0	0.8	n/a	n/a	274.06546092033386	274.09629702568054	275.0656728744507	n/a	circle.bmp	oval-vertical.bmp	oval-vertical.bmp
275.163104057312	1.902702808380127	shape	0.76646399498	1.0	0.8	n/a	n/a	277.06580686569214	277.09635305404663	278.06558108329773	n/a	oval-horizontal.bmp	circle.bmp	circle.bmp
278.1632940769196	1.9025869369506268	shape	0.566692829132	1.0	0.8	n/a	n/a	280.06588101387024	280.09644389152527	281.0655369758606	n/a	oval-horizontal.bmp	oval-horizontal.bmp	circle.bmp
284.16334295272827	1.902122974395752	face	0.699796915054	1.0	0.8	281.12170004844666	284.0821070671081	286.065465927124	286.09637689590454	287.0655739307404	n/a	FFZ_18.jpg	FAZ_129.jpg	FAZ_129.jpg
287.213721036911	1.86855697631836	face	0.599317073822	1.0	0.8	n/a	n/a	289.08227801322937	289.1131229400635	290.0823359489441	n/a	20M_FE_O.jpg	24M_FE_O.jpg	24M_FE_O.jpg
290.19695806503296	1.8684608936309808	face	0.566181898117	1.0	0.8	n/a	n/a	292.06541895866394	292.09645986557007	293.0656099319458	n/a	FAZ_23.jpg	FAX_25.jpg	FAX_25.jpg
293.2137649059296	1.868551015853825	face	0.699411153793	1.0	0.8	n/a	n/a	295.08231592178345	295.1131589412689	296.08242106437683	n/a	33M_FE_O.jpg	33M_FE_O.jpg	35M_FE_O.jpg
296.2300469875336	1.835244894027653	face	0.866160154343	1.0	0.8	n/a	n/a	298.0652918815613	298.0964410305023	299.0657389163971	n/a	01F_AN_O.jpg	01F_AN_O.jpg	02F_AN_O.jpg
299.17994689941406	1.9024620056152344	face	0.599440097809	1.0	0.8	n/a	n/a	301.0824089050293	301.1133160591125	302.0823919773102	n/a	MFZ_132.jpg	MFZ_132.jpg	MFZ_120.jpg
305.11331486701965	1.9358980655670168	shape	0.500353097916	1.0	0.8	302.13972091674805	305.0653760433197	307.04921293258667	307.07985186576843	308.08252692222595	n/a	oval-horizontal.bmp	oval-vertical.bmp	oval-vertical.bmp
308.18013191223145	1.9022409915924072	shape	0.466676950455	1.0	0.8	n/a	n/a	310.08237290382385	310.1132628917694	311.0824279785156	n/a	circle.bmp	oval-vertical.bmp	oval-vertical.bmp
311.1801459789276	1.902306079864502	shape	0.566445112228	1.0	0.8	n/a	n/a	313.0824520587921	313.1134090423584	314.08246207237244	n/a	oval-horizontal.bmp	oval-horizontal.bmp	oval-vertical.bmp
314.1801769733429	1.9024438858032229	shape	0.533509969711	1.0	0.8	n/a	n/a	316.0826208591461	316.11327385902405	317.0825128555298	n/a	oval-horizontal.bmp	oval-horizontal.bmp	circle.bmp
317.18020701408386	1.902134895324707	shape	0.733490943909	1.0	0.8	n/a	n/a	319.08234190940857	319.11347699165344	320.0825839042664	n/a	circle.bmp	circle.bmp	oval-vertical.bmp
320.1802349090576	1.902124166488648	shape	0.733020067215	1.0	0.8	n/a	n/a	322.08235907554626	322.1133098602295	323.0825929641724	n/a	oval-horizontal.bmp	circle.bmp	circle.bmp
326.163999080658	1.901966810226384	face	0.633126974106	1.0	0.8	323.14071893692017	326.06554102897644	328.0659658908844	328.0966968536377	329.06596302986145	n/a	17F_FE_O.jpg	18F_FE_O.jpg	18F_FE_O.jpg
329.21366691589355	1.868586063385009	face	0.499342918396	1.0	0.8	n/a	n/a	331.08225297927856	331.1132788658142	332.0826909542084	n/a	42M_AN_O.jpg	43M_AN_O.jpg	43M_AN_O.jpg
332.23032307624817	1.8351337909698489	face	0.566639900208	1.0	0.8	n/a	n/a	334.065456867218	334.09670400619507	335.0659589767456	n/a	31M_FE_O.jpg	31M_FE_O.jpg	32M_FE_O.jpg
335.18040585517883	1.902245044708252	face	0.466526985168	1.0	0.8	n/a	n/a	337.0826508998871	337.1134529113769	338.082633972168	n/a	FAZ_212.jpg	FFZ_236.jpg	FFZ_236.jpg
338.23045802116394	1.8352830410003664	face	0.566403865814	1.0	0.8	n/a	n/a	340.0657410621643	340.09679102897644	341.0660309791565	n/a	06F_FE_O.jpg	06F_FE_O.jpg	08F_FE_O.jpg
341.1803998947144	1.9024050235747725	face	0.66644692421	1.0	0.8	n/a	n/a	343.0828049182892	343.1134889125824	344.08273005485535	n/a	MAZ_128.jpg	MAZ_128.jpg	MAX_39.jpg
347.13026785850525	1.9358010292053225	shape	0.500070095062	1.0	0.8	344.1434018611908	347.0657980442047	349.06606888771057	349.09681487083435	350.0662188529968	n/a	circle.bmp	oval-vertical.bmp	oval-vertical.bmp
350.180517911911	1.902347087860108	shape	0.49982714653	1.0	0.8	n/a	n/a	352.0828649997711	352.1134369373321	353.08280205726624	n/a	oval-horizontal.bmp	oval-horizontal.bmp	circle.bmp
353.1804668903351	1.902259111404419	shape	0.566421985626	1.0	0.8	n/a	n/a	355.0827260017395	355.1134600639343	356.0828549861908	n/a	oval-horizontal.bmp	oval-vertical.bmp	oval-vertical.bmp
356.1803660392761	1.902284860610962	shape	0.533082008362	0.0	0.8	n/a	n/a	358.0826508998871	358.1134629249573	359.08275604248047	n/a	oval-horizontal.bmp	circle.bmp	circle.bmp
359.1804940700531	1.9024219512940024	shape	0.833420038223	1.0	0.8	n/a	n/a	361.0829160213471	361.11359906196594	362.0828318595886	n/a	oval-horizontal.bmp	oval-horizontal.bmp	oval-vertical.bmp
362.180536031723	1.9022889137267496	shape	0.733027219772	1.0	0.8	n/a	n/a	364.0828249454498	364.11351203918457	365.0828430652618	n/a	circle.bmp	circle.bmp	oval-vertical.bmp
368.1472289562225	1.935456991195736	face	0.76645898819	1.0	0.8	365.142993927002	368.0659980773926	370.0826859474182	370.113648891449	371.082839012146	n/a	FFZ_18.jpg	FAZ_129.jpg	FAZ_129.jpg
371.2307949066162	1.8350090980529783	face	0.799581050873	1.0	0.8	n/a	n/a	373.0658040046692	373.0969970226288	374.0663039684296	n/a	20M_FE_O.jpg	24M_FE_O.jpg	24M_FE_O.jpg
374.1973299980164	1.8686220645903973	face	0.599779129028	1.0	0.8	n/a	n/a	376.0659520626068	376.09704399108887	377.0662958621979	n/a	FAZ_23.jpg	FAX_25.jpg	FAX_25.jpg
377.2141709327698	1.8683440685272217	face	0.56602191925	1.0	0.8	n/a	n/a	379.082515001297	379.1137008666992	380.0829999446869	n/a	33M_FE_O.jpg	33M_FE_O.jpg	35M_FE_O.jpg
380.2306618690491	1.835306167602539	face	0.7661049366	1.0	0.8	n/a	n/a	382.0659680366516	382.0970768928528	383.0663290023804	n/a	01F_AN_O.jpg	01F_AN_O.jpg	02F_AN_O.jpg
383.1972050666809	1.8686919212341309	face	0.699476003647	1.0	0.8	n/a	n/a	385.06589698791504	385.0970640182495	386.0663878917694	394.4664859771729	MFZ_132.jpg	MFZ_132.jpg	MFZ_120.jpg
