onset	duration	trial_type	response_time	accuracy_binarized	tr_seconds	cueStartTime	cueEndTime	trialEndTime	fixStartTime	fixEndTime	runEndTime	stimLeft	stimTop	stimRight
11.0640921593	1.9691710472	shape	0.837459087372	1.0	0.8	8.02698802948	11.0171000957	13.0332632065	13.0377671719	14.033219099	n/a	oval-horizontal.bmp	oval-horizontal.bmp	oval-vertical.bmp
14.1535410881	1.8797960280999977	shape	0.853852033615	1.0	0.8	n/a	n/a	16.0333371162	16.0374171734	17.0323760509	n/a	oval-horizontal.bmp	oval-vertical.bmp	oval-vertical.bmp
17.1306750774	1.9016940594000005	shape	0.670739173889	1.0	0.8	n/a	n/a	19.0323691368	19.0359652042	20.0325911045	n/a	circle.bmp	circle.bmp	oval-vertical.bmp
20.1328852177	1.8999679088000008	shape	0.504595994949	1.0	0.8	n/a	n/a	22.0328531265	22.0368561745	23.0320072174	n/a	circle.bmp	oval-vertical.bmp	oval-vertical.bmp
23.1321680546	1.899988174400001	shape	0.453596830368	1.0	0.8	n/a	n/a	25.032156229	25.0358531475	26.0309870243	n/a	oval-horizontal.bmp	circle.bmp	circle.bmp
26.1301310062	1.9013772011000007	shape	0.43692111969	0.0	0.8	n/a	n/a	28.0315082073	28.0354712009	29.0309491158	n/a	oval-horizontal.bmp	oval-horizontal.bmp	circle.bmp
32.0945532322	1.9369888306000007	face	0.653737068176	1.0	0.8	29.1080291271	32.0309510231	34.0315420628	34.036039114	35.0309932232	n/a	FAZ_23.jpg	FAZ_23.jpg	FAX_43.jpg
35.1716542244	1.8595499991999984	face	0.568539857864	1.0	0.8	n/a	n/a	37.0312042236	37.0350351334	38.0293462276	n/a	26M_FE_O.jpg	26M_FE_O.jpg	27M_FE_O.BMP
38.1521291733	1.878834009100004	face	0.583549022675	1.0	0.8	n/a	n/a	40.0309631824	40.0350160599	41.0298161507	n/a	MFX_16.jpg	MFZ_50.jpg	MFZ_50.jpg
41.1832461357	1.847442865399998	face	0.568442106247	1.0	0.8	n/a	n/a	43.0306890011	43.0342950821	44.0287771225	n/a	09F_AN_O.jpg	09F_AN_O.jpg	10F_AN_O.jpg
44.1640720367	1.865916967400004	face	0.621397972107	1.0	0.8	n/a	n/a	46.0299890041	46.0336241722	47.0291821957	n/a	38M_AN_O.BMP	39M_AN_O.jpg	39M_AN_O.jpg
47.1508860588	1.878857135800004	face	0.621155023575	1.0	0.8	n/a	n/a	49.0297431946	49.0334742069	50.0289552212	n/a	FFZ_102.jpg	FFX_130.jpg	FFX_130.jpg
53.0653131008	1.9638121128	shape	0.55230307579	1.0	0.8	50.1039350033	53.0284950733	55.0291252136	55.0337061882	56.0278410912	n/a	oval-horizontal.bmp	oval-vertical.bmp	oval-vertical.bmp
56.1277451515	1.900872945799996	shape	0.421172142029	1.0	0.8	n/a	n/a	58.0286180973	58.0322721004	59.0278091431	n/a	circle.bmp	oval-vertical.bmp	oval-vertical.bmp
59.1273560524	1.901422023799995	shape	0.653980970383	1.0	0.8	n/a	n/a	61.0287780762	61.0325062275	62.0275270939	n/a	oval-horizontal.bmp	oval-horizontal.bmp	oval-vertical.bmp
62.1276922226	1.8992428780000024	shape	0.602134943008	1.0	0.8	n/a	n/a	64.0269351006	64.0306651592	65.0266821384	n/a	oval-horizontal.bmp	oval-horizontal.bmp	circle.bmp
65.1297361851	1.898239851	shape	0.453964948654	0.0	0.8	n/a	n/a	67.0279760361	67.0315830708	68.0264730453	n/a	circle.bmp	circle.bmp	oval-vertical.bmp
68.1304190159	1.8971371650999915	shape	0.553380012512	1.0	0.8	n/a	n/a	70.027556181	70.0311770439	71.0265901089	n/a	oval-horizontal.bmp	circle.bmp	circle.bmp
74.1169271469	1.9097938537999968	face	0.603013038635	0.0	0.8	71.1069960594	74.0261361599	76.0267210007	76.0319321156	77.0258412361	n/a	03F_FE_O.jpg	05F_FE_O.jpg	05F_FE_O.jpg
77.1478850842	1.8782579898000047	face	0.586453199387	1.0	0.8	n/a	n/a	79.026143074	79.0297260284	80.0246891975	n/a	FAZ_32.jpg	FAZ_32.jpg	FAX_45.jpg
80.1470541954	1.879482984500001	face	0.686431884766	1.0	0.8	n/a	n/a	82.0265371799	82.0301070213	83.0253682137	n/a	MAZ_128.jpg	MAZ_101.jpg	MAZ_101.jpg
83.174279213	1.851346015899992	face	0.536271095276	1.0	0.8	n/a	n/a	85.0256252289	85.0292010307	86.0248730183	n/a	11F_AN_O.jpg	11F_AN_O.jpg	12F_AN_O.jpg
86.1668691635	1.858386993400004	face	0.469855070114	1.0	0.8	n/a	n/a	88.0252561569	88.0290241241	89.0245301723	n/a	26M_FE_O.jpg	33M_FE_O.jpg	33M_FE_O.jpg
89.1476631165	1.8866999149000063	face	0.559850931168	1.0	0.8	n/a	n/a	91.0343630314	91.0379920006	92.0343182087	n/a	MFZ_132.jpg	MFZ_132.jpg	MFZ_120.jpg
95.0641071796	1.960041046200004	shape	0.470043897629	1.0	0.8	92.1157810688	95.02384305	97.0241482258	97.0288360119	98.0240440369	n/a	circle.bmp	oval-vertical.bmp	oval-vertical.bmp
98.126224041	1.896520138	shape	0.470538139343	1.0	0.8	n/a	n/a	100.022744179	100.026772022	101.023216009	n/a	oval-horizontal.bmp	oval-horizontal.bmp	circle.bmp
101.128810167	1.8948290350000008	shape	0.486740112305	1.0	0.8	n/a	n/a	103.023639202	103.027471066	104.022043228	n/a	oval-horizontal.bmp	oval-vertical.bmp	oval-vertical.bmp
104.126542091	1.896687030999999	shape	0.537272930145	1.0	0.8	n/a	n/a	106.023229122	106.027294159	107.022515059	n/a	oval-horizontal.bmp	circle.bmp	circle.bmp
107.125261068	1.8973979950000053	shape	0.452056884766	1.0	0.8	n/a	n/a	109.022659063	109.026272058	110.022226095	n/a	oval-horizontal.bmp	oval-horizontal.bmp	oval-vertical.bmp
110.129287004	1.8929450519999875	shape	0.603910923004	1.0	0.8	n/a	n/a	112.022232056	112.026124001	113.021768093	n/a	circle.bmp	circle.bmp	oval-vertical.bmp
116.074648142	1.9479939940000008	face	0.520136833191	1.0	0.8	113.101935148	116.021397114	118.022642136	118.027540207	119.021251202	n/a	FAZ_23.jpg	FAZ_23.jpg	FAX_43.jpg
119.160977125	1.8611218930000035	face	0.470284938812	1.0	0.8	n/a	n/a	121.022099018	121.025776148	122.020929098	n/a	26M_FE_O.jpg	26M_FE_O.jpg	27M_FE_O.BMP
122.149284124	1.8717460639999928	face	0.493462085724	1.0	0.8	n/a	n/a	124.021030188	124.025090218	125.020431042	n/a	MFZ_50.jpg	MFZ_50.jpg	MFX_16.jpg
125.170762062	1.8502841000000103	face	0.877419948578	1.0	0.8	n/a	n/a	127.021046162	127.02463603	128.020612001	n/a	10F_AN_O.jpg	09F_AN_O.jpg	09F_AN_O.jpg
128.154402018	1.8661470409999763	face	0.626349925995	1.0	0.8	n/a	n/a	130.020549059	130.024261236	131.02020216	n/a	38M_AN_O.BMP	39M_AN_O.jpg	39M_AN_O.jpg
131.143041134	1.878014088000015	face	0.603440999985	0.0	0.8	n/a	n/a	133.021055222	133.024671078	134.019153118	n/a	FFZ_102.jpg	FFX_130.jpg	FFX_130.jpg
137.059201002	1.961474179999982	shape	0.586699962616	1.0	0.8	134.101628065	137.019766092	139.020675182	139.02500701	140.019485235	n/a	oval-horizontal.bmp	oval-horizontal.bmp	oval-vertical.bmp
140.127505064	1.9087979790000127	shape	0.588289022446	1.0	0.8	n/a	n/a	142.036303043	142.039895058	143.035091162	n/a	oval-horizontal.bmp	oval-vertical.bmp	oval-vertical.bmp
143.14461112	1.8910439019999783	shape	0.506844997406	1.0	0.8	n/a	n/a	145.035655022	145.03927803	146.034720182	n/a	circle.bmp	circle.bmp	oval-vertical.bmp
146.142636061	1.892348050999999	shape	0.502436876297	1.0	0.8	n/a	n/a	148.034984112	148.038608074	149.034412146	n/a	circle.bmp	oval-vertical.bmp	oval-vertical.bmp
149.140957117	1.893685102999996	shape	0.535965919495	1.0	0.8	n/a	n/a	151.03464222	151.038227081	152.034762144	n/a	oval-horizontal.bmp	circle.bmp	circle.bmp
152.140681028	1.893505097000002	shape	0.537316083908	1.0	0.8	n/a	n/a	154.034186125	154.038088083	155.033690214	n/a	oval-horizontal.bmp	oval-horizontal.bmp	circle.bmp
158.118935108	1.9152801040000045	face	0.840098142624	1.0	0.8	155.117313147	158.033348083	160.034215212	160.038766146	161.033679008	n/a	20M_FE_O.jpg	21M_FE_O.jpg	21M_FE_O.jpg
161.18922019	1.8449859620000093	face	0.687201023102	1.0	0.8	n/a	n/a	163.034206152	163.037806034	164.033134222	n/a	01F_AN_O.jpg	07F_AN_O.jpg	07F_AN_O.jpg
164.16567421	1.8675239080000097	face	0.604728937149	1.0	0.8	n/a	n/a	166.033198118	166.036837101	167.032012224	n/a	FFX_139.jpg	FFZ_102.jpg	FFZ_102.jpg
167.200012207	1.833137989000022	face	0.552798986435	1.0	0.8	n/a	n/a	169.033150196	169.036562204	170.032352209	n/a	23M_AN_O.jpg	23M_AN_O.jpg	22M_AN_O.jpg
170.160135031	1.872946976999998	face	0.587557077408	1.0	0.8	n/a	n/a	172.033082008	172.036720037	173.032043219	n/a	MAZ_146.jpg	MAZ_146.jpg	MAX_233.jpg
173.193713188	1.8385510450000029	face	0.517877101898	0.0	0.8	n/a	n/a	175.032264233	175.035761118	176.030746222	n/a	15F_FE_O.jpg	15F_FE_O.jpg	16F_FE_O.jpg
179.067050219	1.9639399049999893	shape	0.602703094482	1.0	0.8	176.113929033	179.030414104	181.030990124	181.035638094	182.030738115	n/a	oval-horizontal.bmp	oval-vertical.bmp	oval-vertical.bmp
182.132797003	1.897288083999996	shape	0.487967967987	1.0	0.8	n/a	n/a	184.030085087	184.033932209	185.029948235	n/a	circle.bmp	oval-vertical.bmp	oval-vertical.bmp
185.13135314	1.8987300390000144	shape	0.669682025909	1.0	0.8	n/a	n/a	187.030083179	187.033658028	188.029524088	n/a	oval-horizontal.bmp	oval-horizontal.bmp	oval-vertical.bmp
188.133450031	1.8956670759999952	shape	0.503680944443	1.0	0.8	n/a	n/a	190.029117107	190.032609224	191.029554129	n/a	oval-horizontal.bmp	oval-horizontal.bmp	circle.bmp
191.135479212	1.8943788999999924	shape	0.652064085007	1.0	0.8	n/a	n/a	193.029858112	193.033390045	194.028645039	n/a	circle.bmp	circle.bmp	oval-vertical.bmp
194.132478237	1.896008969000008	shape	0.686370134354	1.0	0.8	n/a	n/a	196.028487206	196.032662153	197.027991056	n/a	oval-horizontal.bmp	circle.bmp	circle.bmp
200.087839127	1.9410200110000064	face	0.584777116776	1.0	0.8	197.108858109	200.027997017	202.028859138	202.033280134	203.027950048	n/a	FFX_54.jpg	FFX_54.jpg	FAX_51.jpg
203.1671772	1.8614089490000083	face	0.569123029709	1.0	0.8	n/a	n/a	205.028586149	205.032093048	206.028000116	n/a	40M_FE_O.BMP	41M_FE_O.jpg	41M_FE_O.jpg
206.172909021	1.8553850649999788	face	0.517227888107	1.0	0.8	n/a	n/a	208.028294086	208.032269001	209.027482033	n/a	29M_AN_O.jpg	29M_AN_O.jpg	28M_AN_O.jpg
209.152057171	1.87550687800001	face	0.569623947144	1.0	0.8	n/a	n/a	211.027564049	211.031094074	212.026596069	n/a	FFZ_18.jpg	FFZ_29.jpg	FFZ_29.jpg
212.176485062	1.850866078999985	face	0.66881608963	1.0	0.8	n/a	n/a	214.027351141	214.030875206	215.026386023	n/a	19F_AN_O.jpg	19F_AN_O.jpg	09F_AN_O.jpg
215.154266119	1.872419119	face	0.600610971451	1.0	0.8	n/a	n/a	217.026685238	217.030155182	218.026321173	n/a	MFZ_132.jpg	MFZ_7.jpg	MFZ_7.jpg
221.062765121	1.9634480479999752	shape	0.619642972946	1.0	0.8	218.109256029	221.025925159	223.026213169	223.03106904	224.025128126	n/a	circle.bmp	oval-vertical.bmp	oval-vertical.bmp
224.133073092	1.892842053999999	shape	0.520387887955	1.0	0.8	n/a	n/a	226.025915146	226.029514074	227.02494216	n/a	oval-horizontal.bmp	oval-horizontal.bmp	circle.bmp
227.133339167	1.8920228480000103	shape	0.453192949295	1.0	0.8	n/a	n/a	229.025362015	229.028913021	230.024685144	n/a	oval-horizontal.bmp	oval-vertical.bmp	oval-vertical.bmp
230.13394618	1.890588044999987	shape	0.569667100906	1.0	0.8	n/a	n/a	232.024534225	232.028321028	233.024388075	n/a	oval-horizontal.bmp	circle.bmp	circle.bmp
233.134261131	1.890322924000003	shape	0.636836051941	1.0	0.8	n/a	n/a	235.024584055	235.028120041	236.024115086	n/a	oval-horizontal.bmp	oval-horizontal.bmp	oval-vertical.bmp
236.129366159	1.8950290680000137	shape	0.672164916992	1.0	0.8	n/a	n/a	238.024395227	238.02800703	239.023986101	n/a	circle.bmp	circle.bmp	oval-vertical.bmp
242.099860191	1.923985004999992	face	1.03058695793	0.0	0.8	239.108599186	242.023426056	244.023845196	244.028241158	245.023648024	n/a	20M_FE_O.jpg	21M_FE_O.jpg	21M_FE_O.jpg
245.181928158	1.842524050999998	face	0.519678115845	1.0	0.8	n/a	n/a	247.024452209	247.028385162	248.023983002	n/a	07F_AN_O.jpg	07F_AN_O.jpg	01F_AN_O.jpg
248.156682014	1.86690807399998	face	0.638073921204	1.0	0.8	n/a	n/a	250.023590088	250.027527094	251.022888184	n/a	FFZ_102.jpg	FFZ_102.jpg	FFX_139.jpg
251.177951097	1.8465161329999944	face	0.669838905334	1.0	0.8	n/a	n/a	253.02446723	253.028028011	254.022644043	n/a	22M_AN_O.jpg	23M_AN_O.jpg	23M_AN_O.jpg
254.154903173	1.8677439689999744	face	0.536998033524	1.0	0.8	n/a	n/a	256.022647142	256.026967049	257.022369146	n/a	MAX_233.jpg	MAZ_146.jpg	MAZ_146.jpg
257.181361198	1.8406379230000312	face	0.835957050323	1.0	0.8	n/a	n/a	259.021999121	259.025813103	260.021748066	n/a	15F_FE_O.jpg	15F_FE_O.jpg	16F_FE_O.jpg
263.059221029	1.96282506	shape	0.451462030411	1.0	0.8	260.118152142	263.021439075	265.022046089	265.026660204	266.021303177	n/a	oval-horizontal.bmp	oval-horizontal.bmp	oval-vertical.bmp
266.135623217	1.886890888000039	shape	0.477876901627	1.0	0.8	n/a	n/a	268.022514105	268.026803017	269.021336079	n/a	oval-horizontal.bmp	oval-vertical.bmp	oval-vertical.bmp
269.142222166	1.8790738579999693	shape	0.519486904144	1.0	0.8	n/a	n/a	271.021296024	271.025006056	272.020000219	n/a	circle.bmp	circle.bmp	oval-vertical.bmp
272.136904001	1.884074210999984	shape	0.512292861938	1.0	0.8	n/a	n/a	274.020978212	274.024673223	275.020825148	n/a	circle.bmp	oval-vertical.bmp	oval-vertical.bmp
275.137257099	1.8835780619999696	shape	0.578956842422	1.0	0.8	n/a	n/a	277.020835161	277.024819136	278.019888163	n/a	oval-horizontal.bmp	circle.bmp	circle.bmp
278.135586023	1.884627104000004	shape	0.579040050507	1.0	0.8	n/a	n/a	280.020213127	280.024122	281.019716024	n/a	oval-horizontal.bmp	oval-horizontal.bmp	circle.bmp
284.096590042	1.923856973999989	face	0.577019929886	1.0	0.8	281.11295104	284.036281109	286.020447016	286.025020123	287.019702196	n/a	FFZ_18.jpg	FAZ_129.jpg	FAZ_129.jpg
287.188288212	1.8479249480000133	face	0.785492181778	1.0	0.8	n/a	n/a	289.03621316	289.039927006	290.035390139	n/a	20M_FE_O.jpg	24M_FE_O.jpg	24M_FE_O.jpg
290.174394131	1.8609271050000304	face	0.569538116455	1.0	0.8	n/a	n/a	292.035321236	292.038928032	293.035497189	n/a	FAZ_23.jpg	FAX_25.jpg	FAX_25.jpg
293.199008226	1.8365259170000168	face	0.571046829224	1.0	0.8	n/a	n/a	295.035534143	295.039313078	296.034681082	n/a	33M_FE_O.jpg	33M_FE_O.jpg	35M_FE_O.jpg
296.20086813	1.8344058989999887	face	0.553742170334	1.0	0.8	n/a	n/a	298.035274029	298.038855076	299.034415007	n/a	01F_AN_O.jpg	01F_AN_O.jpg	02F_AN_O.jpg
299.170343161	1.8644089699999995	face	0.586250066757	1.0	0.8	n/a	n/a	301.034752131	301.038332224	302.033998013	n/a	MFZ_132.jpg	MFZ_132.jpg	MFZ_120.jpg
305.072041035	1.9620079990000363	shape	0.503144025803	0.0	0.8	302.128321171	305.033760071	307.034049034	307.0385952	308.034152031	n/a	oval-horizontal.bmp	oval-vertical.bmp	oval-vertical.bmp
308.154375076	1.8792779450000128	shape	0.639336109161	1.0	0.8	n/a	n/a	310.033653021	310.037575006	311.033217192	n/a	circle.bmp	oval-vertical.bmp	oval-vertical.bmp
311.155375004	1.8784830569999824	shape	0.602708101273	1.0	0.8	n/a	n/a	313.033858061	313.037467003	314.032439232	n/a	oval-horizontal.bmp	oval-horizontal.bmp	oval-vertical.bmp
314.152255058	1.8812260630000424	shape	0.490923881531	1.0	0.8	n/a	n/a	316.033481121	316.037093163	317.032202005	n/a	oval-horizontal.bmp	oval-horizontal.bmp	circle.bmp
317.150247097	1.8823459150000303	shape	0.58992099762	1.0	0.8	n/a	n/a	319.032593012	319.036067009	320.032017231	n/a	circle.bmp	circle.bmp	oval-vertical.bmp
320.156216145	1.8760099410000064	shape	0.685312986374	1.0	0.8	n/a	n/a	322.032226086	322.035913229	323.032426119	n/a	oval-horizontal.bmp	circle.bmp	circle.bmp
326.120458126	1.911727904999964	face	0.919782876968	1.0	0.8	323.12989521	326.03177309	328.032186031	328.036685228	329.031239033	n/a	17F_FE_O.jpg	18F_FE_O.jpg	18F_FE_O.jpg
329.199150085	1.832329989000016	face	0.519264936447	1.0	0.8	n/a	n/a	331.031480074	331.034758091	332.030638218	n/a	42M_AN_O.jpg	43M_AN_O.jpg	43M_AN_O.jpg
332.19497323	1.836206912999956	face	0.555425167084	1.0	0.8	n/a	n/a	334.031180143	334.034807205	335.03029108	n/a	31M_FE_O.jpg	31M_FE_O.jpg	32M_FE_O.jpg
335.173008204	1.8576698300000205	face	0.621588945389	1.0	0.8	n/a	n/a	337.030678034	337.034601212	338.030626059	n/a	FAZ_212.jpg	FFZ_236.jpg	FFZ_236.jpg
338.198760033	1.8313829900000087	face	0.622781991959	1.0	0.8	n/a	n/a	340.030143023	340.033429146	341.029706001	n/a	06F_FE_O.jpg	06F_FE_O.jpg	08F_FE_O.jpg
341.166151047	1.8640441889999693	face	0.820678949356	1.0	0.8	n/a	n/a	343.030195236	343.033805132	344.02920723	n/a	MAZ_128.jpg	MAZ_128.jpg	MAX_39.jpg
347.066644192	1.962698935999981	shape	0.570909023285	1.0	0.8	344.127419233	347.029481173	349.029343128	349.034015179	350.028652191	n/a	circle.bmp	oval-vertical.bmp	oval-vertical.bmp
350.153433084	1.8753700259999848	shape	0.520454883575	1.0	0.8	n/a	n/a	352.02880311	352.033116102	353.028987169	n/a	oval-horizontal.bmp	oval-horizontal.bmp	circle.bmp
353.154691219	1.873685837000039	shape	0.819629907608	1.0	0.8	n/a	n/a	355.028377056	355.031941175	356.028366089	n/a	oval-horizontal.bmp	oval-vertical.bmp	oval-vertical.bmp
356.149128199	1.8794989579999992	shape	0.60341501236	1.0	0.8	n/a	n/a	358.028627157	358.032270193	359.027590036	n/a	oval-horizontal.bmp	circle.bmp	circle.bmp
359.149952173	1.878326893000008	shape	0.569941997528	1.0	0.8	n/a	n/a	361.028279066	361.031823158	362.027832031	n/a	oval-horizontal.bmp	oval-horizontal.bmp	oval-vertical.bmp
362.15391922	1.8729588990000248	shape	0.569206953049	1.0	0.8	n/a	n/a	364.026878119	364.031015158	365.026441097	n/a	circle.bmp	circle.bmp	oval-vertical.bmp
368.085003138	1.9423968790000004	face	0.586672067642	1.0	0.8	365.125709057	368.026398182	370.027400017	370.031910181	371.026367188	n/a	FFZ_18.jpg	FAZ_129.jpg	FAZ_129.jpg
371.195034027	1.8321750169999973	face	0.703320026398	1.0	0.8	n/a	n/a	373.027209044	373.030871153	374.026067019	n/a	20M_FE_O.jpg	24M_FE_O.jpg	24M_FE_O.jpg
374.169211149	1.857028961000026	face	0.552839994431	1.0	0.8	n/a	n/a	376.02624011	376.030252218	377.02583909	n/a	FAZ_23.jpg	FAX_25.jpg	FAX_25.jpg
377.188211203	1.838892936000036	face	0.568998813629	1.0	0.8	n/a	n/a	379.027104139	379.030768156	380.025380135	n/a	33M_FE_O.jpg	33M_FE_O.jpg	35M_FE_O.jpg
380.20203805	1.8246080870000008	face	0.570348024368	1.0	0.8	n/a	n/a	382.026646137	382.030269146	383.025109053	n/a	01F_AN_O.jpg	01F_AN_O.jpg	02F_AN_O.jpg
383.165036201	1.860503911999956	face	0.537757873535	1.0	0.8	n/a	n/a	385.025540113	385.029158115	386.024602175	394.423732042	MFZ_132.jpg	MFZ_132.jpg	MFZ_120.jpg
