onset	duration	trial_type	response_time	accuracy_binarized	tr_seconds	cueStartTime	cueEndTime	trialEndTime	fixStartTime	fixEndTime	runEndTime	stimLeft	stimTop	stimRight
11.115784168243408	1.9349009990692136	shape	0.9840093851105	0.0	0.8	8.056120157241821	11.049729108810425	13.050685167312622	13.082304954528809	14.08284616470337	n/a	oval-horizontal.bmp	oval-horizontal.bmp	oval-vertical.bmp
14.182408094406128	1.9011929035186768	shape	0.633827924728	1.0	0.8	n/a	n/a	16.083600997924805	16.115743160247803	17.082784175872803	n/a	oval-horizontal.bmp	oval-vertical.bmp	oval-vertical.bmp
17.1824049949646	1.9004201889038088	shape	0.766861915588	1.0	0.8	n/a	n/a	19.082825183868408	19.11561608314514	20.08261513710022	n/a	circle.bmp	circle.bmp	oval-vertical.bmp
20.165759086608887	1.933925867080685	shape	0.600332975388	1.0	0.8	n/a	n/a	22.09968495368957	22.132390022277832	23.09955310821533	n/a	circle.bmp	oval-vertical.bmp	oval-vertical.bmp
23.199226140975952	1.9004528522491453	shape	0.533736944199	1.0	0.8	n/a	n/a	25.099678993225098	25.13270807266236	26.09926700592041	n/a	oval-horizontal.bmp	circle.bmp	circle.bmp
26.18257212638855	1.9008688926696773	shape	0.733972072601	1.0	0.8	n/a	n/a	28.083441019058228	28.115835189819336	29.082839965820312	n/a	oval-horizontal.bmp	oval-horizontal.bmp	circle.bmp
32.182608127593994	1.9010639190673828	face	0.700582027435	1.0	0.8	29.13854098320008	32.09966707229614	34.08367204666138	34.11577916145325	35.083024978637695	n/a	FAZ_23.jpg	FAZ_23.jpg	FAX_43.jpg
35.215940952301025	1.867520093917847	face	0.566976070404	1.0	0.8	n/a	n/a	37.08346104621887	37.11589598655701	38.082916021347046	n/a	26M_FE_O.jpg	26M_FE_O.jpg	27M_FE_O.BMP
38.19959115982056	1.900749921798706	face	0.733964920044	1.0	0.8	n/a	n/a	40.10034108161926	40.13242411613464	41.10274815559387	n/a	MFX_16.jpg	MFZ_50.jpg	MFZ_50.jpg
41.23309302330017	1.868888139724732	face	1.09952688217	1.0	0.8	n/a	n/a	43.1019811630249	43.13297414779663	44.10258102416992	n/a	09F_AN_O.jpg	09F_AN_O.jpg	10F_AN_O.jpg
44.233033180236816	1.868722915649414	face	0.765909910202	1.0	0.8	n/a	n/a	46.10175609588623	46.13313817977905	47.10271596908569	n/a	38M_AN_O.BMP	39M_AN_O.jpg	39M_AN_O.jpg
47.2165629863739	1.8689641952514648	face	0.765993833542	1.0	0.8	n/a	n/a	49.085527181625366	49.11642098426819	50.08593916893005	n/a	FFZ_102.jpg	FFX_130.jpg	FFX_130.jpg
53.16656517982483	1.9358289241790845	shape	0.667285203934	1.0	0.8	50.139034032821655	53.10204100608826	55.10239410400391	55.13304710388184	56.102627992630005	n/a	oval-horizontal.bmp	oval-vertical.bmp	oval-vertical.bmp
56.20002102851868	1.9025969505310056	shape	0.466489076614	1.0	0.8	n/a	n/a	58.10261797904968	58.13303399085999	59.10275411605835	n/a	circle.bmp	oval-vertical.bmp	oval-vertical.bmp
59.20010995864868	1.9026010036468504	shape	0.699743032455	1.0	0.8	n/a	n/a	61.10271096229553	61.13304209709168	62.1027979850769	n/a	oval-horizontal.bmp	oval-horizontal.bmp	oval-vertical.bmp
62.19990301132202	1.9028301239013672	shape	0.866353034973	1.0	0.8	n/a	n/a	64.10273313522339	64.13312411308289	65.1028139591217	n/a	oval-horizontal.bmp	oval-horizontal.bmp	circle.bmp
65.19992804527283	1.9027330875396729	shape	0.866379022598	1.0	0.8	n/a	n/a	67.1026611328125	67.13304400444031	68.10282301902771	n/a	circle.bmp	circle.bmp	oval-vertical.bmp
68.19991707801819	1.902796030044556	shape	0.66609287262	1.0	0.8	n/a	n/a	70.10271310806274	70.13315415382385	71.10287809371948	n/a	oval-horizontal.bmp	circle.bmp	circle.bmp
74.18352913856506	1.9023349285125728	face	0.699916124344	1.0	0.8	71.15849018096924	74.08547115325928	76.08586406707764	76.11650609970093	77.08609104156494	n/a	03F_FE_O.jpg	05F_FE_O.jpg	05F_FE_O.jpg
77.19988799095154	1.902022123336792	face	0.599243879318	1.0	0.8	n/a	n/a	79.10191011428833	79.13330101966858	80.10293102264404	n/a	FAZ_32.jpg	FAZ_32.jpg	FAX_45.jpg
80.21665096282959	1.8690481185913088	face	0.732682943344	1.0	0.8	n/a	n/a	82.0856990814209	82.1166250705719	83.08616995811462	n/a	MAZ_128.jpg	MAZ_101.jpg	MAZ_101.jpg
83.21683096885681	1.8688790798187256	face	0.766123056412	1.0	0.8	n/a	n/a	85.08571004867554	85.11662006378174	86.08633518218994	n/a	11F_AN_O.jpg	11F_AN_O.jpg	12F_AN_O.jpg
86.23336410522461	1.868941068649292	face	0.599555969238	1.0	0.8	n/a	n/a	88.1023051738739	88.13332414627075	89.06966304779053	n/a	26M_FE_O.jpg	33M_FE_O.jpg	33M_FE_O.jpg
89.18334913253784	1.9023458957671977	face	0.665930986404	1.0	0.8	n/a	n/a	91.08569502830504	91.1165280342102	92.0862250328064	n/a	MFZ_132.jpg	MFZ_132.jpg	MFZ_120.jpg
95.16678309440611	1.9359669685363912	shape	0.817054986954	0.0	0.8	92.13675808906557	95.10232615470886	97.1027500629425	97.13342499732973	98.06966805458067	n/a	circle.bmp	oval-vertical.bmp	oval-vertical.bmp
98.16676807403564	1.9361870288848733	shape	0.5997569561	1.0	0.8	n/a	n/a	100.10295510292052	100.133278131485	101.06969714164734	n/a	oval-horizontal.bmp	oval-horizontal.bmp	circle.bmp
101.16680908203124	1.93626189231874	shape	0.566364049911	1.0	0.8	n/a	n/a	103.10307097434998	103.13336300849916	104.06974697113036	n/a	oval-horizontal.bmp	oval-vertical.bmp	oval-vertical.bmp
104.1667971611023	1.935920000076308	shape	0.53293299675	1.0	0.8	n/a	n/a	106.1027171611786	106.13350510597228	107.06976199150084	n/a	oval-horizontal.bmp	circle.bmp	circle.bmp
107.16683316230774	1.9359419345855853	shape	0.833093881607	1.0	0.8	n/a	n/a	109.10277509689332	109.13362312316896	110.0697901248932	n/a	oval-horizontal.bmp	oval-horizontal.bmp	oval-vertical.bmp
110.166836977005	1.9360771179199217	shape	0.699653148651	1.0	0.8	n/a	n/a	112.10291409492493	112.13345313072205	113.069815158844	n/a	circle.bmp	circle.bmp	oval-vertical.bmp
116.16693115234376	1.935751914978013	face	0.600052118301	1.0	0.8	113.12604117393494	116.08586597442628	118.10268306732178	118.13348007202148	119.06982517242432	n/a	FAZ_23.jpg	FAZ_23.jpg	FAX_43.jpg
119.20047616958618	1.9020378589630127	face	0.665993928909	1.0	0.8	n/a	n/a	121.1025140285492	121.13370299339294	122.0698230266571	n/a	26M_FE_O.jpg	26M_FE_O.jpg	27M_FE_O.BMP
122.1836531162262	1.9023890495300435	face	0.632568120956	1.0	0.8	n/a	n/a	124.08604216575624	124.11690998077393	125.08640217781068	n/a	MFZ_50.jpg	MFZ_50.jpg	MFX_16.jpg
125.21704506874084	1.8690230846405167	face	0.699187040329	1.0	0.8	n/a	n/a	127.08606815338136	127.11686706542967	128.08661007881165	n/a	10F_AN_O.jpg	09F_AN_O.jpg	09F_AN_O.jpg
128.21701216697693	1.869081974029541	face	0.599107027054	1.0	0.8	n/a	n/a	130.08609414100647	130.11690998077393	131.08661603927612	n/a	38M_AN_O.BMP	39M_AN_O.jpg	39M_AN_O.jpg
131.2004120349884	1.9020509719848635	face	0.599416017532	1.0	0.8	n/a	n/a	133.10246300697327	133.1337389945984	134.06996512413025	n/a	FFZ_102.jpg	FFX_130.jpg	FFX_130.jpg
137.1336431503296	1.969803810119629	shape	0.800540924072	1.0	0.8	134.12684798240662	137.0858190059662	139.10344696044922	139.13368105888367	140.06992197036743	n/a	oval-horizontal.bmp	oval-horizontal.bmp	oval-vertical.bmp
140.16703295707703	1.936154127120972	shape	0.53325009346	1.0	0.8	n/a	n/a	142.103187084198	142.13364911079407	143.0700011253357	n/a	oval-horizontal.bmp	oval-vertical.bmp	oval-vertical.bmp
143.1670491695404	1.9358618259429927	shape	0.666702032089	1.0	0.8	n/a	n/a	145.1029109954834	145.13383412361145	146.07005500793457	n/a	circle.bmp	circle.bmp	oval-vertical.bmp
146.16708397865295	1.9361259937286377	shape	0.599573135376	1.0	0.8	n/a	n/a	148.1032099723816	148.1337239742279	149.07010102272034	n/a	circle.bmp	oval-vertical.bmp	oval-vertical.bmp
149.167062997818	1.9361860752105715	shape	0.86655497551	1.0	0.8	n/a	n/a	151.10324907302856	151.13376307487488	152.07010912895203	n/a	oval-horizontal.bmp	circle.bmp	circle.bmp
152.1671290397644	1.936170101165772	shape	0.666343927383	1.0	0.8	n/a	n/a	154.10329914093018	154.13381600379944	155.07005906105042	n/a	oval-horizontal.bmp	oval-horizontal.bmp	circle.bmp
158.1839680671692	1.90253496170044	face	1.13296294212	1.0	0.8	155.12764716148376	158.0859990119934	160.08650302886963	160.11708903312683	161.0867681503296	n/a	20M_FE_O.jpg	21M_FE_O.jpg	21M_FE_O.jpg
161.21715998649597	1.8691949844360352	face	0.73285484314	1.0	0.8	n/a	n/a	163.086354970932	163.11709713935852	164.08667612075806	n/a	01F_AN_O.jpg	07F_AN_O.jpg	07F_AN_O.jpg
164.20055603981018	1.9022140502929688	face	0.599299907684	1.0	0.8	n/a	n/a	166.10277009010315	166.13389110565186	167.07013201713562	n/a	FFX_139.jpg	FFZ_102.jpg	FFZ_102.jpg
167.20077204704285	1.901861906051636	face	0.732884168625	1.0	0.8	n/a	n/a	169.10263395309448	169.13402700424194	170.07023906707764	n/a	23M_AN_O.jpg	23M_AN_O.jpg	22M_AN_O.jpg
170.18404912948608	1.902381896972656	face	0.666033983231	1.0	0.8	n/a	n/a	172.08643102645874	172.11717200279236	173.0868101119995	n/a	MAZ_146.jpg	MAZ_146.jpg	MAX_233.jpg
173.21732902526855	1.8691201210021973	face	0.866199016571	0.0	0.8	n/a	n/a	175.08644914627075	175.11717295646667	176.0868911743164	n/a	15F_FE_O.jpg	15F_FE_O.jpg	16F_FE_O.jpg
179.16748213768005	1.9028718471527384	shape	0.666811943054	1.0	0.8	176.1473240852356	179.1028699874878	181.0703539848328	181.10053205490112	182.0702040195465	n/a	oval-horizontal.bmp	oval-vertical.bmp	oval-vertical.bmp
182.16732001304624	1.935805082321196	shape	0.566000938416	1.0	0.8	n/a	n/a	184.10312509536743	184.1338720321656	185.0701491832733	n/a	circle.bmp	oval-vertical.bmp	oval-vertical.bmp
185.16769909858704	1.9024200439453125	shape	0.666265964508	1.0	0.8	n/a	n/a	187.07011914253235	187.10055112838745	188.0701229572296	n/a	oval-horizontal.bmp	oval-horizontal.bmp	oval-vertical.bmp
188.1673321723938	1.9026508331298828	shape	0.766483068466	1.0	0.8	n/a	n/a	190.06998300552368	190.10057497024536	191.0703561306	n/a	oval-horizontal.bmp	oval-horizontal.bmp	circle.bmp
191.16730403900144	1.9360890388489336	shape	0.699784040451	1.0	0.8	n/a	n/a	193.1033930778504	193.1339221000672	194.0703191757202	n/a	circle.bmp	circle.bmp	oval-vertical.bmp
194.1673891544342	1.9025218486785889	shape	0.499868869781	1.0	0.8	n/a	n/a	196.0699110031128	196.1006600856781	197.0703551769257	n/a	oval-horizontal.bmp	circle.bmp	circle.bmp
200.15084600448608	1.935502052307129	face	0.699816942215	1.0	0.8	197.12836003303528	200.08619618415835	202.0863480567932	202.1173670291901	203.08699297904968	n/a	FFX_54.jpg	FFX_54.jpg	FAX_51.jpg
203.21753811836243	1.8689789772033687	face	0.632807016373	1.0	0.8	n/a	n/a	205.0865170955658	205.11744904518127	206.08694005012512	n/a	40M_FE_O.BMP	41M_FE_O.jpg	41M_FE_O.jpg
206.2174410820008	1.8691239356994345	face	0.699414968491	1.0	0.8	n/a	n/a	208.0865650177002	208.11744117736816	209.08707118034363	n/a	29M_AN_O.jpg	29M_AN_O.jpg	28M_AN_O.jpg
209.20106196403503	1.902037143707276	face	0.699492931366	1.0	0.8	n/a	n/a	211.1030991077423	211.1341931819916	212.0703320503235	n/a	FFZ_18.jpg	FFZ_29.jpg	FFZ_29.jpg
212.200896024704	1.9021110534667969	face	0.59926199913	1.0	0.8	n/a	n/a	214.1030070781708	214.1342301368713	215.0704610347748	n/a	19F_AN_O.jpg	19F_AN_O.jpg	09F_AN_O.jpg
215.20115995407104	1.9018771648406696	face	0.699466943741	1.0	0.8	n/a	n/a	217.1030371189117	217.1342029571533	218.07042407989505	n/a	MFZ_132.jpg	MFZ_7.jpg	MFZ_7.jpg
221.13426995277405	1.9363372325897217	shape	0.566785812378	1.0	0.8	218.1338300704956	221.0698339939117	223.07060718536377	223.1007900238037	224.07035303115845	n/a	circle.bmp	oval-vertical.bmp	oval-vertical.bmp
224.1675879955292	1.9065401554107664	shape	0.599920034409	1.0	0.8	n/a	n/a	226.07412815094	226.1008059978485	227.07066202163696	n/a	oval-horizontal.bmp	oval-horizontal.bmp	circle.bmp
227.16760110855105	1.90283298492426	shape	0.532860994339	1.0	0.8	n/a	n/a	229.0704340934753	229.10089015960693	230.07057404518127	n/a	oval-horizontal.bmp	oval-vertical.bmp	oval-vertical.bmp
230.1677131652832	1.9023709297179887	shape	0.566442966461	1.0	0.8	n/a	n/a	232.0700840950012	232.1010000705719	233.07060408592224	n/a	oval-horizontal.bmp	circle.bmp	circle.bmp
233.16772198677063	1.9028050899505613	shape	0.733167886734	1.0	0.8	n/a	n/a	235.0705270767212	235.10091614723208	236.07049918174744	n/a	oval-horizontal.bmp	oval-horizontal.bmp	oval-vertical.bmp
236.16771817207336	1.902735948562622	shape	0.66613984108	1.0	0.8	n/a	n/a	238.070454120636	238.10094618797305	239.07063007354736	n/a	circle.bmp	circle.bmp	oval-vertical.bmp
242.18458318710327	1.9026057720184328	face	1.0332930088	1.0	0.8	239.13271617889404	242.086699962616	244.0871889591217	244.11767411231995	245.0874130725861	n/a	20M_FE_O.jpg	21M_FE_O.jpg	21M_FE_O.jpg
245.2343671321869	1.835680007934542	face	0.665877819061	1.0	0.8	n/a	n/a	247.07004714012143	247.1010971069336	248.07048916816711	n/a	07F_AN_O.jpg	07F_AN_O.jpg	01F_AN_O.jpg
248.1844201087952	1.902504920959444	face	0.63241314888	1.0	0.8	n/a	n/a	250.08692502975464	250.1177611351013	251.0874531269073	n/a	FFZ_102.jpg	FFZ_102.jpg	FFX_139.jpg
251.234631061554	1.83541607856742	face	0.999629974365	1.0	0.8	n/a	n/a	253.07004714012143	253.10116004943848	254.0707850456237	n/a	22M_AN_O.jpg	23M_AN_O.jpg	23M_AN_O.jpg
254.2012469768524	1.902266025543241	face	0.665860176086	1.0	0.8	n/a	n/a	256.10351300239563	256.13448214530945	257.07073497772217	n/a	MAX_233.jpg	MAZ_146.jpg	MAZ_146.jpg
257.2180190086365	1.868934154510498	face	1.13293385506	1.0	0.8	n/a	n/a	259.086953163147	259.1178469657898	260.08727407455444	n/a	15F_FE_O.jpg	15F_FE_O.jpg	16F_FE_O.jpg
263.1346700191498	1.936257123947144	shape	0.633846998215	1.0	0.8	260.1427791118622	263.070111989975	265.0709271430969	265.10113501548767	266.0708420276642	n/a	oval-horizontal.bmp	oval-horizontal.bmp	oval-vertical.bmp
266.1678509712219	1.9025070667266848	shape	0.799701929092	1.0	0.8	n/a	n/a	268.0703580379486	268.1012010574341	269.07084012031555	n/a	oval-horizontal.bmp	oval-vertical.bmp	oval-vertical.bmp
269.16782999038696	1.9028420448303225	shape	0.599458932877	1.0	0.8	n/a	n/a	271.0706720352173	271.10116696357727	272.0707151889801	n/a	circle.bmp	circle.bmp	oval-vertical.bmp
272.16790199279785	1.9024410247802728	shape	0.633011817932	1.0	0.8	n/a	n/a	274.0703430175781	274.10109210014343	275.0709130764008	n/a	circle.bmp	oval-vertical.bmp	oval-vertical.bmp
275.16785502433777	1.9028401374816888	shape	0.566437005997	1.0	0.8	n/a	n/a	277.07069516181946	277.10114216804504	278.0709149837494	n/a	oval-horizontal.bmp	circle.bmp	circle.bmp
278.16790318489075	1.902861833572388	shape	0.666522026062	1.0	0.8	n/a	n/a	280.07076501846313	280.10113310813904	281.07090997695923	n/a	oval-horizontal.bmp	oval-horizontal.bmp	circle.bmp
284.1513819694519	1.935595989227295	face	0.56670498848	1.0	0.8	281.135174036026	284.0702259540558	286.0869779586792	286.1180090904236	287.0875790119171	n/a	FFZ_18.jpg	FAZ_129.jpg	FAZ_129.jpg
287.23467803001404	1.835701942443848	face	0.932731151581	1.0	0.8	n/a	n/a	289.0703799724579	289.10124111175537	290.0710029602051	n/a	20M_FE_O.jpg	24M_FE_O.jpg	24M_FE_O.jpg
290.2018229961395	1.8685340881347656	face	0.632496833801	1.0	0.8	n/a	n/a	292.0703570842743	292.10125613212585	293.07101011276245	n/a	FAZ_23.jpg	FAX_25.jpg	FAX_25.jpg
293.2182800769806	1.868764877319336	face	0.56591796875	1.0	0.8	n/a	n/a	295.0870449542999	295.11807203292847	296.08769607543945	n/a	33M_FE_O.jpg	33M_FE_O.jpg	35M_FE_O.jpg
296.23472809791565	1.835507869720459	face	0.59930896759	1.0	0.8	n/a	n/a	298.0702359676361	298.10147309303284	299.07107305526733	n/a	01F_AN_O.jpg	01F_AN_O.jpg	02F_AN_O.jpg
299.2016911506653	1.8687779903411863	face	0.665895938873	1.0	0.8	n/a	n/a	301.07046914100647	301.10132908821106	302.07105803489685	n/a	MFZ_132.jpg	MFZ_132.jpg	MFZ_120.jpg
305.11832213401794	1.9360120296478271	shape	0.567187070847	1.0	0.8	302.1368839740753	305.0701940059662	307.05433416366577	307.08474802970886	308.0876829624176	n/a	oval-horizontal.bmp	oval-vertical.bmp	oval-vertical.bmp
308.1847941875458	1.902430772781372	shape	0.499938964844	1.0	0.8	n/a	n/a	310.08722496032715	310.11824011802673	311.08777713775635	n/a	circle.bmp	oval-vertical.bmp	oval-vertical.bmp
311.1848201751709	1.902608871459961	shape	0.699970006943	1.0	0.8	n/a	n/a	313.08742904663086	313.1182451248169	314.08763909339905	n/a	oval-horizontal.bmp	oval-horizontal.bmp	oval-vertical.bmp
314.18493700027466	1.9024031162261963	shape	0.600015878677	1.0	0.8	n/a	n/a	316.08734011650085	316.1186139583588	317.0876700878144	n/a	oval-horizontal.bmp	oval-horizontal.bmp	circle.bmp
317.1848301887512	1.902551889419556	shape	0.566502809525	1.0	0.8	n/a	n/a	319.0873820781708	319.1183021068573	320.0877389907837	n/a	circle.bmp	circle.bmp	oval-vertical.bmp
320.1848750114441	1.9026460647583008	shape	0.766670942307	1.0	0.8	n/a	n/a	322.0875210762024	322.11831307411194	323.08779311180115	n/a	oval-horizontal.bmp	circle.bmp	circle.bmp
326.16848611831665	1.902077913284245	face	0.833081960678	1.0	0.8	323.1485450267792	326.0703320503235	328.0705640316009	328.10143995285034	329.0710871219635	n/a	17F_FE_O.jpg	18F_FE_O.jpg	18F_FE_O.jpg
329.21826100349426	1.868818044662476	face	0.632555007935	1.0	0.8	n/a	n/a	331.08707904815674	331.1185109615326	332.08777117729187	n/a	42M_AN_O.jpg	43M_AN_O.jpg	43M_AN_O.jpg
332.2182941436768	1.868804931640568	face	0.799372911453	1.0	0.8	n/a	n/a	334.0870990753174	334.1183850765228	335.0878040790558	n/a	31M_FE_O.jpg	31M_FE_O.jpg	32M_FE_O.jpg
335.2020230293274	1.8682410717010496	face	0.632328033447	1.0	0.8	n/a	n/a	337.07026410102844	337.1014859676361	338.07110500335693	n/a	FAZ_212.jpg	FFZ_236.jpg	FFZ_236.jpg
338.2185220718384	1.8684360980987549	face	0.666091918945	1.0	0.8	n/a	n/a	340.08695816993713	340.11845111846924	341.0879051685333	n/a	06F_FE_O.jpg	06F_FE_O.jpg	08F_FE_O.jpg
341.2016701698303	1.8686339855194087	face	0.699037790298	1.0	0.8	n/a	n/a	343.07030415534973	343.10150599479675	344.07120299339294	n/a	MAZ_128.jpg	MAZ_128.jpg	MAX_39.jpg
347.1351020336151	1.9360389709472656	shape	0.600208044052	1.0	0.8	344.131010055542	347.0872299671173	349.0711410045624	349.1015570163727	350.0712831020355	n/a	circle.bmp	oval-vertical.bmp	oval-vertical.bmp
350.16843605041504	1.902503967285156	shape	0.666525125504	1.0	0.8	n/a	n/a	352.0709400177002	352.1017920970917	353.07138204574585	n/a	oval-horizontal.bmp	oval-horizontal.bmp	circle.bmp
353.1851191520691	1.9028139114379885	shape	0.599720001221	1.0	0.8	n/a	n/a	355.0879330635071	355.11868500709534	356.0881299972534	n/a	oval-horizontal.bmp	oval-vertical.bmp	oval-vertical.bmp
356.20179295539856	1.869456052780152	shape	0.700110912323	1.0	0.8	n/a	n/a	358.0712490081787	358.1017360687256	359.07144117355347	n/a	oval-horizontal.bmp	circle.bmp	circle.bmp
359.1851170063019	1.9028689861298176	shape	0.599791049957	1.0	0.8	n/a	n/a	361.0879859924317	361.1183421611786	362.0878729820252	n/a	oval-horizontal.bmp	oval-horizontal.bmp	oval-vertical.bmp
362.185173034668	1.9025650024413487	shape	0.633239984512	1.0	0.8	n/a	n/a	364.0877380371094	364.1185491085053	365.08810806274414	n/a	circle.bmp	circle.bmp	oval-vertical.bmp
368.1518580913544	1.936095952987671	face	0.600209951401	1.0	0.8	365.1556990146637	368.0873460769653	370.0879540443421	370.1184461116791	371.0881731510162	n/a	FFZ_18.jpg	FAZ_129.jpg	FAZ_129.jpg
371.235347032547	1.8355391025543213	face	0.732677936554	1.0	0.8	n/a	n/a	373.0708861351013	373.10181403160095	374.0714371204376	n/a	20M_FE_O.jpg	24M_FE_O.jpg	24M_FE_O.jpg
374.201945066452	1.8689610958099927	face	0.59929895401	1.0	0.8	n/a	n/a	376.070906162262	376.10185408592224	377.0715479850769	n/a	FAZ_23.jpg	FAX_25.jpg	FAX_25.jpg
377.21868801116943	1.8690299987792969	face	0.699295043945	1.0	0.8	n/a	n/a	379.08771800994873	379.1186280250549	380.08810114860535	n/a	33M_FE_O.jpg	33M_FE_O.jpg	35M_FE_O.jpg
380.235270023346	1.835660934448185	face	0.599193096161	1.0	0.8	n/a	n/a	382.0709309577942	382.1018531322479	383.0716271400452	n/a	01F_AN_O.jpg	01F_AN_O.jpg	02F_AN_O.jpg
383.2020800113678	1.868865966796875	face	0.599410057068	1.0	0.8	n/a	n/a	385.0709459781647	385.1018760204315	386.0715219974518	394.471647977829	MFZ_132.jpg	MFZ_132.jpg	MFZ_120.jpg
