onset	duration	trial_type	response_time	accuracy_binarized	tr_seconds	cueStartTime	cueEndTime	trialEndTime	fixStartTime	fixEndTime	runEndTime	stimLeft	stimTop	stimRight
11.0858929157	1.9486291409	shape	0.869001865387	1.0	0.8	8.02881884575	11.0190939903	13.0345220566	13.0513219833	14.0334498882	n/a	oval-horizontal.bmp	oval-horizontal.bmp	oval-vertical.bmp
14.1521978378	1.8814561367000024	shape	0.653292894363	1.0	0.8	n/a	n/a	16.0336539745	16.049726963	17.0335130692	n/a	oval-horizontal.bmp	oval-vertical.bmp	oval-vertical.bmp
17.1390688419	1.8946762085000013	shape	0.596461057663	1.0	0.8	n/a	n/a	19.0337450504	19.0492339134	20.0319769382	n/a	circle.bmp	circle.bmp	oval-vertical.bmp
20.1409919262	1.8905599116999987	shape	0.610496997833	1.0	0.8	n/a	n/a	22.0315518379	22.0475468636	23.0311870575	n/a	circle.bmp	oval-vertical.bmp	oval-vertical.bmp
23.142868042	1.8876638411999984	shape	0.609088897705	1.0	0.8	n/a	n/a	25.0305318832	25.0476429462	26.0304369926	n/a	oval-horizontal.bmp	circle.bmp	circle.bmp
26.1441409588	1.8837339878	shape	0.768047094345	1.0	0.8	n/a	n/a	28.0278749466	28.0450499058	29.0299289227	n/a	oval-horizontal.bmp	oval-horizontal.bmp	circle.bmp
32.0958960056	1.932679891600003	face	0.868956804276	1.0	0.8	29.1072769165	32.0285010338	34.0285758972	34.0445549488	35.0277559757	n/a	FAZ_23.jpg	FAZ_23.jpg	FAX_43.jpg
35.1783268452	1.8483171463000048	face	1.11778593063	1.0	0.8	n/a	n/a	37.0266439915	37.0438568592	38.0259258747	n/a	26M_FE_O.jpg	26M_FE_O.jpg	27M_FE_O.BMP
38.160243988	1.8656640053000049	face	0.919232130051	1.0	0.8	n/a	n/a	40.0259079933	40.0421910286	41.0252869129	n/a	MFX_16.jpg	MFZ_50.jpg	MFZ_50.jpg
41.1854810715	1.840057849899999	face	0.810257196426	1.0	0.8	n/a	n/a	43.0255389214	43.0418229103	44.0244190693	n/a	09F_AN_O.jpg	09F_AN_O.jpg	10F_AN_O.jpg
44.1760129929	1.848459959000003	face	0.887085914612	1.0	0.8	n/a	n/a	46.0244729519	46.0409228802	47.0368840694	n/a	38M_AN_O.BMP	39M_AN_O.jpg	39M_AN_O.jpg
47.1718988419	1.8659551143	face	0.952955007553	1.0	0.8	n/a	n/a	49.0378539562	49.0546278954	50.0236039162	n/a	FFZ_102.jpg	FFX_130.jpg	FFX_130.jpg
53.0731899738	1.949189901400004	shape	0.651195049286	1.0	0.8	50.1017899513	53.0223698616	55.0223798752	55.0382218361	56.0374040604	n/a	oval-horizontal.bmp	oval-vertical.bmp	oval-vertical.bmp
56.155164957	1.8825039864000035	shape	0.536489963531	1.0	0.8	n/a	n/a	58.0376689434	58.054268837	59.0370290279	n/a	circle.bmp	oval-vertical.bmp	oval-vertical.bmp
59.1544849873	1.8815159796999976	shape	0.685266017914	1.0	0.8	n/a	n/a	61.036000967	61.0531098843	62.0357160568	n/a	oval-horizontal.bmp	oval-horizontal.bmp	oval-vertical.bmp
62.1451120377	1.8899419307000045	shape	0.877333164215	1.0	0.8	n/a	n/a	64.0350539684	64.0521018505	65.0348229408	n/a	oval-horizontal.bmp	oval-horizontal.bmp	circle.bmp
65.1469659805	1.887363910700003	shape	0.524526119232	1.0	0.8	n/a	n/a	67.0343298912	67.050577879	68.0311489105	n/a	circle.bmp	circle.bmp	oval-vertical.bmp
68.1487469673	1.8850419520999964	shape	0.653674840927	1.0	0.8	n/a	n/a	70.0337889194	70.0506379604	71.0329809189	n/a	oval-horizontal.bmp	circle.bmp	circle.bmp
74.1335659027	1.8977530003	face	1.61769199371	1.0	0.8	71.1117548943	74.0325660706	76.031318903	76.0486719608	77.0304448605	n/a	03F_FE_O.jpg	05F_FE_O.jpg	05F_FE_O.jpg
77.1649689674	1.8661360740999984	face	0.918318986893	1.0	0.8	n/a	n/a	79.0311050415	79.0474698544	80.0298919678	n/a	FAZ_32.jpg	FAZ_32.jpg	FAX_45.jpg
80.1647779942	1.8653190136000009	face	1.66905808449	0.0	0.8	n/a	n/a	82.0300970078	82.0464389324	83.0294489861	n/a	MAZ_128.jpg	MAZ_101.jpg	MAZ_101.jpg
83.1894600391	1.839605808300007	face	1.25993895531	1.0	0.8	n/a	n/a	85.0290658474	85.0455110073	86.0278968811	n/a	11F_AN_O.jpg	11F_AN_O.jpg	12F_AN_O.jpg
86.1788899899	1.849014043799997	face	0.841029882431	1.0	0.8	n/a	n/a	88.0279040337	88.0446748734	89.0245199203	n/a	26M_FE_O.jpg	33M_FE_O.jpg	33M_FE_O.jpg
89.159774065	1.868235826500012	face	1.10323500633	1.0	0.8	n/a	n/a	91.0280098915	91.0441470146	92.027094841	n/a	MFZ_132.jpg	MFZ_132.jpg	MFZ_120.jpg
95.0779180527	1.9473078250999976	shape	0.650840044022	1.0	0.8	92.1085929871	95.0253648758	97.0252258778	97.0422229767	98.0246088505	n/a	circle.bmp	oval-vertical.bmp	oval-vertical.bmp
98.1419129372	1.8829541207999936	shape	0.60164809227	1.0	0.8	n/a	n/a	100.024867058	100.040601969	101.023057938	n/a	oval-horizontal.bmp	oval-horizontal.bmp	circle.bmp
101.140954018	1.882406950000004	shape	0.512013912201	1.0	0.8	n/a	n/a	103.023360968	103.039399862	104.022736073	n/a	oval-horizontal.bmp	oval-vertical.bmp	oval-vertical.bmp
104.140112877	1.8830351829999896	shape	0.5768430233	1.0	0.8	n/a	n/a	106.02314806	106.039057016	107.038821936	n/a	oval-horizontal.bmp	circle.bmp	circle.bmp
107.156370878	1.8827400209999887	shape	0.50754404068	1.0	0.8	n/a	n/a	109.039110899	109.05446291	110.034651041	n/a	oval-horizontal.bmp	oval-horizontal.bmp	oval-vertical.bmp
110.152830839	1.8851900100000023	shape	0.903532028198	1.0	0.8	n/a	n/a	112.038020849	112.054345846	113.037343979	n/a	circle.bmp	circle.bmp	oval-vertical.bmp
116.104097843	1.9313361649999905	face	0.834407091141	1.0	0.8	113.121504068	116.036589861	118.035434008	118.052430868	119.035667896	n/a	FAZ_23.jpg	FAZ_23.jpg	FAX_43.jpg
119.18523097	1.849332094999994	face	0.770417928696	1.0	0.8	n/a	n/a	121.034563065	121.050791025	122.033297062	n/a	26M_FE_O.jpg	26M_FE_O.jpg	27M_FE_O.BMP
122.167670965	1.8662760259999944	face	0.858645915985	1.0	0.8	n/a	n/a	124.033946991	124.050163031	125.033205986	n/a	MFZ_50.jpg	MFZ_50.jpg	MFX_16.jpg
125.193572998	1.8390350340000048	face	1.19484305382	1.0	0.8	n/a	n/a	127.032608032	127.049023867	128.032171011	n/a	10F_AN_O.jpg	09F_AN_O.jpg	09F_AN_O.jpg
128.178642988	1.8535120489999883	face	0.857088088989	1.0	0.8	n/a	n/a	130.032155037	130.048720837	131.027936935	n/a	38M_AN_O.BMP	39M_AN_O.jpg	39M_AN_O.jpg
131.162255049	1.8695650100000023	face	1.08855009079	1.0	0.8	n/a	n/a	133.031820059	133.047225952	134.030670881	n/a	FFZ_102.jpg	FFX_130.jpg	FFX_130.jpg
137.081027985	1.948469877000008	shape	0.534718990326	1.0	0.8	134.116260052	137.029301882	139.029497862	139.046165943	140.028553963	n/a	oval-horizontal.bmp	oval-horizontal.bmp	oval-vertical.bmp
140.146317005	1.8815720080000065	shape	0.68607211113	1.0	0.8	n/a	n/a	142.027889013	142.044993877	143.027379036	n/a	oval-horizontal.bmp	oval-vertical.bmp	oval-vertical.bmp
143.145282984	1.8821640010000067	shape	0.52742099762	1.0	0.8	n/a	n/a	145.027446985	145.04389286	146.026746035	n/a	circle.bmp	circle.bmp	oval-vertical.bmp
146.143830061	1.8825569150000088	shape	0.577525138855	1.0	0.8	n/a	n/a	148.026386976	148.042918921	149.025500059	n/a	circle.bmp	oval-vertical.bmp	oval-vertical.bmp
149.155338049	1.883704901000016	shape	0.536252975464	1.0	0.8	n/a	n/a	151.03904295	151.054921865	152.022202969	n/a	oval-horizontal.bmp	circle.bmp	circle.bmp
152.140176058	1.884539841999981	shape	0.670838117599	1.0	0.8	n/a	n/a	154.0247159	154.041633844	155.024113894	n/a	oval-horizontal.bmp	oval-horizontal.bmp	circle.bmp
158.106189013	1.916393040999992	face	1.56867599487	0.0	0.8	155.111096859	158.023143053	160.022582054	160.039507866	161.021846056	n/a	20M_FE_O.jpg	21M_FE_O.jpg	21M_FE_O.jpg
161.18958807	1.8483319279999928	face	1.31619501114	1.0	0.8	n/a	n/a	163.037919998	163.054340839	164.037652969	n/a	01F_AN_O.jpg	07F_AN_O.jpg	07F_AN_O.jpg
164.171555996	1.8656039239999984	face	1.15864491463	1.0	0.8	n/a	n/a	166.03715992	166.053750992	167.0363729	n/a	FFX_139.jpg	FFZ_102.jpg	FFZ_102.jpg
167.199826956	1.8375830649999896	face	0.992475986481	1.0	0.8	n/a	n/a	169.037410021	169.052974939	170.03576088	n/a	23M_AN_O.jpg	23M_AN_O.jpg	22M_AN_O.jpg
170.170266867	1.862136124999978	face	0.801105976105	1.0	0.8	n/a	n/a	172.032402992	172.049191952	173.032634974	n/a	MAZ_146.jpg	MAZ_146.jpg	MAX_233.jpg
173.200129986	1.834419011999984	face	1.22145485878	1.0	0.8	n/a	n/a	175.034548998	175.051617861	176.033717871	n/a	15F_FE_O.jpg	15F_FE_O.jpg	16F_FE_O.jpg
179.084357023	1.9485969549999995	shape	0.635678052902	1.0	0.8	176.123318911	179.033325911	181.032953978	181.04934907	182.031921864	n/a	oval-horizontal.bmp	oval-vertical.bmp	oval-vertical.bmp
182.149026871	1.8830630780000208	shape	0.669608831406	1.0	0.8	n/a	n/a	184.032089949	184.048572063	185.03113389	n/a	circle.bmp	oval-vertical.bmp	oval-vertical.bmp
185.156143904	1.8743281360000024	shape	0.561451911926	1.0	0.8	n/a	n/a	187.03047204	187.047060966	188.029598951	n/a	oval-horizontal.bmp	oval-horizontal.bmp	oval-vertical.bmp
188.157768011	1.8723030090000063	shape	0.61000084877	1.0	0.8	n/a	n/a	190.03007102	190.046020985	191.028634071	n/a	oval-horizontal.bmp	oval-horizontal.bmp	circle.bmp
191.146602869	1.879805088000012	shape	0.520013093948	1.0	0.8	n/a	n/a	193.026407957	193.04191494	194.025595903	n/a	circle.bmp	circle.bmp	oval-vertical.bmp
194.144537926	1.8841760159999976	shape	1.12125205994	1.0	0.8	n/a	n/a	196.028713942	196.045091867	197.02825284	n/a	oval-horizontal.bmp	circle.bmp	circle.bmp
200.093894005	1.9326009749999853	face	0.700227975845	1.0	0.8	197.117786884	200.026367903	202.02649498	202.042425871	203.025462866	n/a	FFX_54.jpg	FFX_54.jpg	FAX_51.jpg
203.175704002	1.849746942999985	face	0.83524107933	1.0	0.8	n/a	n/a	205.025450945	205.041928053	206.024706841	n/a	40M_FE_O.BMP	41M_FE_O.jpg	41M_FE_O.jpg
206.183385849	1.8411362170000127	face	0.794960021973	1.0	0.8	n/a	n/a	208.024522066	208.041372061	209.023696899	n/a	29M_AN_O.jpg	29M_AN_O.jpg	28M_AN_O.jpg
209.168997049	1.8544759749999853	face	0.807760953903	1.0	0.8	n/a	n/a	211.023473024	211.040268898	212.022485018	n/a	FFZ_18.jpg	FFZ_29.jpg	FFZ_29.jpg
212.190522909	1.8458969589999867	face	0.836533069611	1.0	0.8	n/a	n/a	214.036419868	214.053101063	215.03667593	n/a	19F_AN_O.jpg	19F_AN_O.jpg	09F_AN_O.jpg
215.188040972	1.834450959999998	face	0.921600103378	1.0	0.8	n/a	n/a	217.022491932	217.038776875	218.038531065	n/a	MFZ_132.jpg	MFZ_7.jpg	MFZ_7.jpg
221.088413	1.948443889999993	shape	0.702120065689	1.0	0.8	218.129588842	221.03655386	223.03685689	223.052458048	224.03587389	n/a	circle.bmp	oval-vertical.bmp	oval-vertical.bmp
224.153558016	1.8815679550000084	shape	0.852159976959	1.0	0.8	n/a	n/a	226.035125971	226.052338839	227.035147905	n/a	oval-horizontal.bmp	oval-horizontal.bmp	circle.bmp
227.160271883	1.8746891019999907	shape	0.611802101135	1.0	0.8	n/a	n/a	229.034960985	229.051203012	230.034335852	n/a	oval-horizontal.bmp	oval-vertical.bmp	oval-vertical.bmp
230.162021875	1.8709950450000008	shape	0.576794147491	1.0	0.8	n/a	n/a	232.03301692	232.050215006	233.032958984	n/a	oval-horizontal.bmp	circle.bmp	circle.bmp
233.164068937	1.8660418990000096	shape	0.553743124008	1.0	0.8	n/a	n/a	235.030110836	235.046568871	236.03014493	n/a	oval-horizontal.bmp	oval-horizontal.bmp	oval-vertical.bmp
236.150712967	1.8816599849999989	shape	0.639039039612	1.0	0.8	n/a	n/a	238.032372952	238.048809052	239.031857014	n/a	circle.bmp	circle.bmp	oval-vertical.bmp
242.115154028	1.914721012000001	face	1.51816701889	1.0	0.8	239.122946978	242.030712843	244.02987504	244.046215057	245.028948069	n/a	20M_FE_O.jpg	21M_FE_O.jpg	21M_FE_O.jpg
245.197303057	1.8319468500000085	face	1.03513503075	1.0	0.8	n/a	n/a	247.029249907	247.045623064	248.028038025	n/a	07F_AN_O.jpg	07F_AN_O.jpg	01F_AN_O.jpg
248.172051907	1.8559811110000053	face	1.11156392097	1.0	0.8	n/a	n/a	250.028033018	250.044752836	251.027606964	n/a	FFZ_102.jpg	FFZ_102.jpg	FFX_139.jpg
251.188235044	1.8391048909999768	face	0.958524942398	1.0	0.8	n/a	n/a	253.027339935	253.043700933	254.02641201	n/a	22M_AN_O.jpg	23M_AN_O.jpg	23M_AN_O.jpg
254.17323494	1.8498849860000064	face	0.969285964966	1.0	0.8	n/a	n/a	256.023119926	256.040546894	257.025222063	n/a	MAX_233.jpg	MAZ_146.jpg	MAZ_146.jpg
257.192021847	1.833932161000007	face	1.10422110558	1.0	0.8	n/a	n/a	259.025954008	259.042562008	260.025084019	n/a	15F_FE_O.jpg	15F_FE_O.jpg	16F_FE_O.jpg
263.074606895	1.9490959650000264	shape	0.702634811401	1.0	0.8	260.118972063	263.023436069	265.02370286	265.039353848	266.022896051	n/a	oval-horizontal.bmp	oval-horizontal.bmp	oval-vertical.bmp
266.145684958	1.877024887999994	shape	0.679445981979	1.0	0.8	n/a	n/a	268.022709846	268.039382935	269.038758993	n/a	oval-horizontal.bmp	oval-vertical.bmp	oval-vertical.bmp
269.173202038	1.8645048139999856	shape	0.56049489975	1.0	0.8	n/a	n/a	271.037706852	271.054905891	272.037147045	n/a	circle.bmp	circle.bmp	oval-vertical.bmp
272.165966034	1.8712978359999968	shape	0.625939846039	1.0	0.8	n/a	n/a	274.03726387	274.054250956	275.036720991	n/a	circle.bmp	oval-vertical.bmp	oval-vertical.bmp
275.167672873	1.866871118000006	shape	0.636718034744	1.0	0.8	n/a	n/a	277.034543991	277.050474882	278.036130905	n/a	oval-horizontal.bmp	circle.bmp	circle.bmp
278.16889286	1.8669791229999648	shape	0.654258966446	1.0	0.8	n/a	n/a	280.035871983	280.053238869	281.035323858	n/a	oval-horizontal.bmp	oval-horizontal.bmp	circle.bmp
284.101341963	1.9322459699999968	face	0.719686031342	1.0	0.8	281.130179882	284.033652067	286.033587933	286.050575018	287.032995939	n/a	FFZ_18.jpg	FAZ_129.jpg	FAZ_129.jpg
287.202239037	1.8312919139999624	face	1.21984410286	1.0	0.8	n/a	n/a	289.033530951	289.049237013	290.032433987	n/a	20M_FE_O.jpg	24M_FE_O.jpg	24M_FE_O.jpg
290.182332039	1.8494718069999865	face	0.77752494812	1.0	0.8	n/a	n/a	292.031803846	292.048539877	293.031378984	n/a	FAZ_23.jpg	FAX_25.jpg	FAX_25.jpg
293.209619045	1.821502924000015	face	0.758031129837	1.0	0.8	n/a	n/a	295.031121969	295.047000885	296.029824018	n/a	33M_FE_O.jpg	33M_FE_O.jpg	35M_FE_O.jpg
296.197993994	1.8296730519999755	face	0.869843006134	1.0	0.8	n/a	n/a	298.027667046	298.044626951	299.029512882	n/a	01F_AN_O.jpg	01F_AN_O.jpg	02F_AN_O.jpg
299.179767847	1.849946021999984	face	0.970592975616	1.0	0.8	n/a	n/a	301.029713869	301.045687914	302.028955936	n/a	MFZ_132.jpg	MFZ_132.jpg	MFZ_120.jpg
305.078090906	1.9484951499999847	shape	0.599964857101	1.0	0.8	302.128107071	305.027737856	307.026586056	307.043287992	308.025887012	n/a	oval-horizontal.bmp	oval-vertical.bmp	oval-vertical.bmp
308.160464048	1.865933895000012	shape	0.602757930756	1.0	0.8	n/a	n/a	310.026397943	310.042285919	311.02580595	n/a	circle.bmp	oval-vertical.bmp	oval-vertical.bmp
311.151835918	1.873959065000008	shape	0.626082897186	1.0	0.8	n/a	n/a	313.025794983	313.041656971	314.025028944	n/a	oval-horizontal.bmp	oval-horizontal.bmp	oval-vertical.bmp
314.15358901	1.8704979419999856	shape	0.775527000427	1.0	0.8	n/a	n/a	316.024086952	316.041106939	317.023912907	n/a	oval-horizontal.bmp	oval-horizontal.bmp	circle.bmp
317.154561043	1.8697049620000143	shape	0.602665185928	1.0	0.8	n/a	n/a	319.024266005	319.041353941	320.023689985	n/a	circle.bmp	circle.bmp	oval-vertical.bmp
320.156849861	1.8657431599999648	shape	0.637163162231	1.0	0.8	n/a	n/a	322.022593021	322.039747	323.022837877	n/a	oval-horizontal.bmp	circle.bmp	circle.bmp
326.125576973	1.9120290279999488	face	1.38193893433	0.0	0.8	323.123162985	326.037238836	328.037606001	328.053709984	329.037258863	n/a	17F_FE_O.jpg	18F_FE_O.jpg	18F_FE_O.jpg
329.210033894	1.8264379500000127	face	0.762866973877	1.0	0.8	n/a	n/a	331.036471844	331.05325985	332.035832882	n/a	42M_AN_O.jpg	43M_AN_O.jpg	43M_AN_O.jpg
332.211684942	1.8241009710000071	face	1.14328098297	1.0	0.8	n/a	n/a	334.035785913	334.052384853	335.035423994	n/a	31M_FE_O.jpg	31M_FE_O.jpg	32M_FE_O.jpg
335.186056852	1.8483550550000127	face	1.38907718658	1.0	0.8	n/a	n/a	337.034411907	337.05140996	338.03006196	n/a	FAZ_212.jpg	FFZ_236.jpg	FFZ_236.jpg
338.201957941	1.8305768970000145	face	0.903841972351	1.0	0.8	n/a	n/a	340.032534838	340.048400879	341.032774925	n/a	06F_FE_O.jpg	06F_FE_O.jpg	08F_FE_O.jpg
341.182960033	1.850884915000052	face	1.18623518944	1.0	0.8	n/a	n/a	343.033844948	343.050009012	344.032191992	n/a	MAZ_128.jpg	MAZ_128.jpg	MAX_39.jpg
347.082352877	1.948732136999979	shape	0.704300165176	1.0	0.8	344.134320974	347.031686068	349.031085014	349.048151016	350.030436039	n/a	circle.bmp	oval-vertical.bmp	oval-vertical.bmp
350.164847851	1.865344047000008	shape	0.753093004227	1.0	0.8	n/a	n/a	352.030191898	352.046436071	353.028622866	n/a	oval-horizontal.bmp	oval-horizontal.bmp	circle.bmp
353.163763046	1.8656909470000187	shape	0.692461967468	1.0	0.8	n/a	n/a	355.029453993	355.045871019	356.028512001	n/a	oval-horizontal.bmp	oval-vertical.bmp	oval-vertical.bmp
356.157081842	1.870958089999988	shape	0.674711942673	1.0	0.8	n/a	n/a	358.028039932	358.044937849	359.024235964	n/a	oval-horizontal.bmp	circle.bmp	circle.bmp
359.158829927	1.8687009820000071	shape	0.753260135651	1.0	0.8	n/a	n/a	361.027530909	361.044276953	362.02740097	n/a	oval-horizontal.bmp	oval-horizontal.bmp	oval-vertical.bmp
362.159921885	1.8670251359999952	shape	0.702965021133	1.0	0.8	n/a	n/a	364.026947021	364.042971849	365.02588892	n/a	circle.bmp	circle.bmp	oval-vertical.bmp
368.092478991	1.932322025000019	face	1.02010202408	1.0	0.8	365.127160072	368.024566889	370.024801016	370.040772915	371.024031878	n/a	FFZ_18.jpg	FAZ_129.jpg	FAZ_129.jpg
371.207884073	1.8151779180000176	face	1.21963596344	1.0	0.8	n/a	n/a	373.023061991	373.039901972	374.022461891	n/a	20M_FE_O.jpg	24M_FE_O.jpg	24M_FE_O.jpg
374.173048019	1.849761962999992	face	0.875498056412	1.0	0.8	n/a	n/a	376.022809982	376.039190054	377.038630009	n/a	FAZ_23.jpg	FAX_25.jpg	FAX_25.jpg
377.217478991	1.8218610280000007	face	0.824289083481	1.0	0.8	n/a	n/a	379.039340019	379.054601908	380.034944057	n/a	33M_FE_O.jpg	33M_FE_O.jpg	35M_FE_O.jpg
380.219279051	1.818714856999975	face	1.13728308678	1.0	0.8	n/a	n/a	382.037993908	382.054499865	383.037075996	n/a	01F_AN_O.jpg	01F_AN_O.jpg	02F_AN_O.jpg
383.206199884	1.8311550619999928	face	0.870009899139	1.0	0.8	n/a	n/a	385.037354946	385.053957939	386.035591841	394.433152914	MFZ_132.jpg	MFZ_132.jpg	MFZ_120.jpg
