onset	duration	trial_type	response_time	accuracy_binarized	tr_seconds	cueStartTime	cueEndTime	trialEndTime	fixStartTime	fixEndTime	runEndTime	stimLeft	stimTop	stimRight
11.0688211918	1.9571959972	shape	1.38266706467	1.0	0.8	8.02239322662	11.009814024	13.026017189	13.0305430889	14.0253601074	n/a	oval-horizontal.bmp	oval-horizontal.bmp	oval-vertical.bmp
14.1429791451	1.8827378748999983	shape	0.965734958649	1.0	0.8	n/a	n/a	16.02571702	16.0294651985	17.0248510838	n/a	oval-horizontal.bmp	oval-vertical.bmp	oval-vertical.bmp
17.1247520447	1.9010791778	shape	1.07007908821	1.0	0.8	n/a	n/a	19.0258312225	19.0294251442	20.0242421627	n/a	circle.bmp	circle.bmp	oval-vertical.bmp
20.1225712299	1.902258873000001	shape	0.952728033066	1.0	0.8	n/a	n/a	22.0248301029	22.0284371376	23.0243821144	n/a	circle.bmp	oval-vertical.bmp	oval-vertical.bmp
23.123290062	1.9013180732000023	shape	0.817944049835	1.0	0.8	n/a	n/a	25.0246081352	25.0282270908	26.0240721703	n/a	oval-horizontal.bmp	circle.bmp	circle.bmp
26.1229481697	1.9018959999000025	shape	0.753761053085	1.0	0.8	n/a	n/a	28.0248441696	28.0288920403	29.0235922337	n/a	oval-horizontal.bmp	oval-horizontal.bmp	circle.bmp
32.0858931541	1.9383969307000013	face	0.930814027786	1.0	0.8	29.0990130901	32.0223810673	34.0242900848	34.0289981365	35.0228922367	n/a	FAZ_23.jpg	FAZ_23.jpg	FAX_43.jpg
35.166064024	1.8574361801000023	face	1.1604912281	1.0	0.8	n/a	n/a	37.0235002041	37.027433157	38.0226812363	n/a	26M_FE_O.jpg	26M_FE_O.jpg	27M_FE_O.BMP
38.151695013	1.871073007599996	face	0.996871948242	1.0	0.8	n/a	n/a	40.0227680206	40.0268030167	41.0222592354	n/a	MFX_16.jpg	MFZ_50.jpg	MFZ_50.jpg
41.1772119999	1.845673084299996	face	1.2852461338	1.0	0.8	n/a	n/a	43.0228850842	43.0265491009	44.0224831104	n/a	09F_AN_O.jpg	09F_AN_O.jpg	10F_AN_O.jpg
44.1624820232	1.859978199000004	face	1.55244708061	1.0	0.8	n/a	n/a	46.0224602222	46.0261330605	47.0219042301	n/a	38M_AN_O.BMP	39M_AN_O.jpg	39M_AN_O.jpg
47.1435821056	1.879172086800004	face	1.13650417328	1.0	0.8	n/a	n/a	49.0227541924	49.026471138	50.0212681293	n/a	FFZ_102.jpg	FFX_130.jpg	FFX_130.jpg
53.0600941181	1.9603979588000016	shape	0.836381912231	1.0	0.8	50.1012752056	53.0211420059	55.0204920769	55.0250990391	56.0206871033	n/a	oval-horizontal.bmp	oval-vertical.bmp	oval-vertical.bmp
56.1196751595	1.9016239643000008	shape	0.844929933548	1.0	0.8	n/a	n/a	58.0212991238	58.0251531601	59.0199830532	n/a	circle.bmp	oval-vertical.bmp	oval-vertical.bmp
59.1226210594	1.8979561329000063	shape	1.33389592171	1.0	0.8	n/a	n/a	61.0205771923	61.0242350101	62.0197710991	n/a	oval-horizontal.bmp	oval-horizontal.bmp	oval-vertical.bmp
62.1199190617	1.8936409949999984	shape	0.770442008972	1.0	0.8	n/a	n/a	64.0135600567	64.0171861649	65.0195171833	n/a	oval-horizontal.bmp	oval-horizontal.bmp	circle.bmp
65.1222271919	1.8982059956000088	shape	0.919963121414	1.0	0.8	n/a	n/a	67.0204331875	67.0240111351	68.0198860168	n/a	circle.bmp	circle.bmp	oval-vertical.bmp
68.1228780746	1.8968949318000057	shape	0.868937969208	1.0	0.8	n/a	n/a	70.0197730064	70.0233781338	71.0190341473	n/a	oval-horizontal.bmp	circle.bmp	circle.bmp
74.0999011993	1.9141860008999885	face	1.1367559433	1.0	0.8	71.096788168	74.0130701065	76.0140872002	76.0194330215	77.0127701759	n/a	03F_FE_O.jpg	05F_FE_O.jpg	05F_FE_O.jpg
77.1328442097	1.8806388378000063	face	0.920535087585	1.0	0.8	n/a	n/a	79.0134830475	79.0173790455	80.0132870674	n/a	FAZ_32.jpg	FAZ_32.jpg	FAX_45.jpg
80.1380801201	1.8798480034	face	1.56793785095	1.0	0.8	n/a	n/a	82.0179281235	82.0215461254	83.017843008	n/a	MAZ_128.jpg	MAZ_101.jpg	MAZ_101.jpg
83.1687290668	1.849333047900004	face	1.22002387047	1.0	0.8	n/a	n/a	85.0180621147	85.0217790604	86.0172581673	n/a	11F_AN_O.jpg	11F_AN_O.jpg	12F_AN_O.jpg
86.1634151936	1.8542249201999963	face	0.990833997726	1.0	0.8	n/a	n/a	88.0176401138	88.0216610432	89.0172049999	n/a	26M_FE_O.jpg	33M_FE_O.jpg	33M_FE_O.jpg
89.1398870945	1.8775529860999995	face	1.05330705643	1.0	0.8	n/a	n/a	91.0174400806	91.0210471153	92.0167121887	n/a	MFZ_132.jpg	MFZ_132.jpg	MFZ_120.jpg
95.0532541275	1.963313102699999	shape	0.874752998352	1.0	0.8	92.0968401432	95.016310215	97.0165672302	97.0210471153	98.0160331726	n/a	circle.bmp	oval-vertical.bmp	oval-vertical.bmp
98.1234230995	1.892447948499992	shape	0.720140218735	1.0	0.8	n/a	n/a	100.015871048	100.020005226	101.01556015	n/a	oval-horizontal.bmp	oval-horizontal.bmp	circle.bmp
101.124587059	1.8914999959999927	shape	0.886885166168	1.0	0.8	n/a	n/a	103.016087055	103.019692183	104.015328169	n/a	oval-horizontal.bmp	oval-vertical.bmp	oval-vertical.bmp
104.11817503	1.897044182000002	shape	0.805586099625	1.0	0.8	n/a	n/a	106.015219212	106.01890111	107.014867067	n/a	oval-horizontal.bmp	circle.bmp	circle.bmp
107.11870122	1.896300791999991	shape	1.10627603531	1.0	0.8	n/a	n/a	109.015002012	109.018691063	110.014610052	n/a	oval-horizontal.bmp	oval-horizontal.bmp	oval-vertical.bmp
110.120493174	1.894577979999994	shape	0.889406919479	1.0	0.8	n/a	n/a	112.015071154	112.019384146	113.014323235	n/a	circle.bmp	circle.bmp	oval-vertical.bmp
116.071010113	1.9435009949999933	face	0.787616968155	1.0	0.8	113.095198154	116.013710022	118.014511108	118.018974066	119.013618231	n/a	FAZ_23.jpg	FAZ_23.jpg	FAX_43.jpg
119.14333415	1.8708040719999983	face	0.839519023895	1.0	0.8	n/a	n/a	121.014138222	121.017721176	122.013664007	n/a	26M_FE_O.jpg	26M_FE_O.jpg	27M_FE_O.BMP
122.137579203	1.876040934999992	face	0.935714006424	1.0	0.8	n/a	n/a	124.013620138	124.017194033	125.012897015	n/a	MFZ_50.jpg	MFZ_50.jpg	MFX_16.jpg
125.163217068	1.8502261640000053	face	1.38660311699	1.0	0.8	n/a	n/a	127.013443232	127.017252207	128.013245106	n/a	10F_AN_O.jpg	09F_AN_O.jpg	09F_AN_O.jpg
128.147478104	1.86528205800002	face	1.1875679493	1.0	0.8	n/a	n/a	130.012760162	130.016373158	131.012166023	n/a	38M_AN_O.BMP	39M_AN_O.jpg	39M_AN_O.jpg
131.132874012	1.879661083000002	face	1.31985402107	1.0	0.8	n/a	n/a	133.012535095	133.016165018	134.011909008	n/a	FFZ_102.jpg	FFX_130.jpg	FFX_130.jpg
137.049033165	1.9636559490000136	shape	1.12002897263	1.0	0.8	134.096997023	137.012070179	139.012689114	139.017452002	140.01374507	n/a	oval-horizontal.bmp	oval-horizontal.bmp	oval-vertical.bmp
140.119022131	1.9089679719999992	shape	0.953350067139	1.0	0.8	n/a	n/a	142.027990103	142.031691074	143.027359009	n/a	oval-horizontal.bmp	oval-vertical.bmp	oval-vertical.bmp
143.13310504	1.8945920459999848	shape	0.886859178543	1.0	0.8	n/a	n/a	145.027697086	145.031330109	146.027425051	n/a	circle.bmp	circle.bmp	oval-vertical.bmp
146.133601189	1.8935370439999983	shape	0.820044994354	1.0	0.8	n/a	n/a	148.027138233	148.03135705	149.026661158	n/a	circle.bmp	oval-vertical.bmp	oval-vertical.bmp
149.132940054	1.8943591120000176	shape	0.935919046402	1.0	0.8	n/a	n/a	151.027299166	151.030931234	152.026450157	n/a	oval-horizontal.bmp	circle.bmp	circle.bmp
152.134072065	1.89306616799999	shape	0.819977998734	1.0	0.8	n/a	n/a	154.027138233	154.030786037	155.026324034	n/a	oval-horizontal.bmp	oval-horizontal.bmp	circle.bmp
158.106730223	1.919393778	face	1.40384888649	1.0	0.8	155.111631155	158.026130199	160.026124001	160.030979156	161.025293112	n/a	20M_FE_O.jpg	21M_FE_O.jpg	21M_FE_O.jpg
161.186407089	1.839610099999988	face	0.852910995483	1.0	0.8	n/a	n/a	163.026017189	163.029723167	164.025512218	n/a	01F_AN_O.jpg	07F_AN_O.jpg	07F_AN_O.jpg
164.154009104	1.8721179959999856	face	0.836545944214	1.0	0.8	n/a	n/a	166.0261271	166.029785156	167.024881124	n/a	FFX_139.jpg	FFZ_102.jpg	FFZ_102.jpg
167.184050083	1.8417949680000163	face	0.966325998306	1.0	0.8	n/a	n/a	169.025845051	169.029513121	170.024575233	n/a	23M_AN_O.jpg	23M_AN_O.jpg	22M_AN_O.jpg
170.154093027	1.8711881640000168	face	0.986630916595	1.0	0.8	n/a	n/a	172.025281191	172.028980017	173.024254084	n/a	MAZ_146.jpg	MAZ_146.jpg	MAX_233.jpg
173.173260212	1.851292849000004	face	1.42001199722	1.0	0.8	n/a	n/a	175.024553061	175.028508186	176.023257017	n/a	15F_FE_O.jpg	15F_FE_O.jpg	16F_FE_O.jpg
179.061732054	1.9625210760000016	shape	0.852671861649	1.0	0.8	176.109426022	179.023257017	181.02425313	181.02891016	182.023304224	n/a	oval-horizontal.bmp	oval-vertical.bmp	oval-vertical.bmp
182.132283211	1.891961813000023	shape	0.60086607933	1.0	0.8	n/a	n/a	184.024245024	184.028306007	185.023486137	n/a	circle.bmp	oval-vertical.bmp	oval-vertical.bmp
185.132519007	1.8905861379999749	shape	0.782259941101	1.0	0.8	n/a	n/a	187.023105145	187.026755095	188.022351027	n/a	oval-horizontal.bmp	oval-horizontal.bmp	oval-vertical.bmp
188.137375116	1.885270119000012	shape	0.655303001404	1.0	0.8	n/a	n/a	190.022645235	190.026501179	191.02218318	n/a	oval-horizontal.bmp	oval-horizontal.bmp	circle.bmp
191.133303165	1.8893690109999848	shape	0.697273015976	1.0	0.8	n/a	n/a	193.022672176	193.026285172	194.022408009	n/a	circle.bmp	circle.bmp	oval-vertical.bmp
194.131146193	1.8898959160000004	shape	0.819949150085	1.0	0.8	n/a	n/a	196.021042109	196.025134087	197.021517038	n/a	oval-horizontal.bmp	circle.bmp	circle.bmp
200.08219409	1.9394481180000007	face	0.696758031845	1.0	0.8	197.108665228	200.020881176	202.021642208	202.026423216	203.021172047	n/a	FFX_54.jpg	FFX_54.jpg	FAX_51.jpg
203.172652006	1.8491160869999987	face	0.686836957932	1.0	0.8	n/a	n/a	205.021768093	205.025570154	206.020523071	n/a	40M_FE_O.BMP	41M_FE_O.jpg	41M_FE_O.jpg
206.18643117	1.8337788580000165	face	0.870137929916	1.0	0.8	n/a	n/a	208.020210028	208.023976088	209.020151138	n/a	29M_AN_O.jpg	29M_AN_O.jpg	28M_AN_O.jpg
209.151869059	1.8684830659999816	face	0.745862960815	1.0	0.8	n/a	n/a	211.020352125	211.024314165	212.01961422	n/a	FFZ_18.jpg	FFZ_29.jpg	FFZ_29.jpg
212.173368216	1.8472259039999983	face	0.700078010559	1.0	0.8	n/a	n/a	214.02059412	214.024311066	215.019894123	n/a	19F_AN_O.jpg	19F_AN_O.jpg	09F_AN_O.jpg
215.152375221	1.8676288130000105	face	1.11222195625	1.0	0.8	n/a	n/a	217.020004034	217.023729086	218.019246101	n/a	MFZ_132.jpg	MFZ_7.jpg	MFZ_7.jpg
221.057586193	1.962352038000006	shape	0.782874822617	1.0	0.8	218.113884211	221.018954039	223.019938231	223.024528027	224.018706083	n/a	circle.bmp	oval-vertical.bmp	oval-vertical.bmp
224.134389162	1.8847129350000105	shape	0.644160985947	1.0	0.8	n/a	n/a	226.019102097	226.022951126	227.018186092	n/a	oval-horizontal.bmp	oval-horizontal.bmp	circle.bmp
227.131104231	1.8876638410000053	shape	0.642911195755	1.0	0.8	n/a	n/a	229.018768072	229.022638083	230.01862216	n/a	oval-horizontal.bmp	oval-vertical.bmp	oval-vertical.bmp
230.134668112	1.8832519049999803	shape	0.76137304306	1.0	0.8	n/a	n/a	232.017920017	232.021991014	233.017472029	n/a	oval-horizontal.bmp	circle.bmp	circle.bmp
233.133297205	1.884274959999999	shape	0.794393062592	1.0	0.8	n/a	n/a	235.017572165	235.021157026	236.01722908	n/a	oval-horizontal.bmp	oval-horizontal.bmp	oval-vertical.bmp
236.132152081	1.895714044000016	shape	0.870699882507	1.0	0.8	n/a	n/a	238.027866125	238.031406164	239.016833067	n/a	circle.bmp	circle.bmp	oval-vertical.bmp
242.091601133	1.936758994999991	face	1.00284194946	1.0	0.8	239.10828805	242.016644001	244.028360128	244.033324003	245.027153015	n/a	20M_FE_O.jpg	21M_FE_O.jpg	21M_FE_O.jpg
245.183165073	1.8336160190000044	face	0.960053920746	1.0	0.8	n/a	n/a	247.016781092	247.020373106	248.015935183	n/a	07F_AN_O.jpg	07F_AN_O.jpg	01F_AN_O.jpg
248.14498806	1.8831369879999893	face	0.820348978043	1.0	0.8	n/a	n/a	250.028125048	250.031733036	251.027131081	n/a	FFZ_102.jpg	FFZ_102.jpg	FFX_139.jpg
251.188259125	1.827739954000009	face	1.28549194336	1.0	0.8	n/a	n/a	253.015999079	253.019653082	254.015079021	n/a	22M_AN_O.jpg	23M_AN_O.jpg	23M_AN_O.jpg
254.15163517	1.863540888000017	face	0.887527942657	1.0	0.8	n/a	n/a	256.015176058	256.019211054	257.014551163	n/a	MAX_233.jpg	MAZ_146.jpg	MAZ_146.jpg
257.171658039	1.843631028999993	face	1.13695311546	1.0	0.8	n/a	n/a	259.015289068	259.018909216	260.014693022	n/a	15F_FE_O.jpg	15F_FE_O.jpg	16F_FE_O.jpg
263.051397085	1.9632339479999807	shape	0.741043806076	1.0	0.8	260.106761217	263.01415205	265.014631033	265.019139051	266.013683081	n/a	oval-horizontal.bmp	oval-horizontal.bmp	oval-vertical.bmp
266.131778002	1.8816380500000487	shape	0.889906167984	1.0	0.8	n/a	n/a	268.013416052	268.017475128	269.013606071	n/a	oval-horizontal.bmp	oval-vertical.bmp	oval-vertical.bmp
269.131023169	1.882582902000024	shape	0.823524951935	1.0	0.8	n/a	n/a	271.013606071	271.017542124	272.012915134	n/a	circle.bmp	circle.bmp	oval-vertical.bmp
272.134781122	1.878669977000016	shape	0.658801078796	1.0	0.8	n/a	n/a	274.013451099	274.017043114	275.012867212	n/a	circle.bmp	oval-vertical.bmp	oval-vertical.bmp
275.129399061	1.883655070999964	shape	0.838508844376	1.0	0.8	n/a	n/a	277.013054132	277.016708136	278.013094187	n/a	oval-horizontal.bmp	circle.bmp	circle.bmp
278.129557133	1.882874012000002	shape	0.706440925598	1.0	0.8	n/a	n/a	280.012431145	280.016633034	281.012183189	n/a	oval-horizontal.bmp	oval-horizontal.bmp	circle.bmp
284.074954033	1.937661171000002	face	0.755191802979	1.0	0.8	281.106054068	284.012016058	286.012615204	286.017199039	287.011903048	n/a	FFZ_18.jpg	FAZ_129.jpg	FAZ_129.jpg
287.179234028	1.8331301210000104	face	1.25468707085	1.0	0.8	n/a	n/a	289.012364149	289.015979052	290.011468172	n/a	20M_FE_O.jpg	24M_FE_O.jpg	24M_FE_O.jpg
290.145653009	1.882647038000016	face	0.834940195084	1.0	0.8	n/a	n/a	292.028300047	292.032337189	293.027516127	n/a	FAZ_23.jpg	FAX_25.jpg	FAX_25.jpg
293.184516191	1.8275458819999808	face	0.718794822693	1.0	0.8	n/a	n/a	295.012062073	295.015701056	296.010792017	n/a	33M_FE_O.jpg	33M_FE_O.jpg	35M_FE_O.jpg
296.172056198	1.855611801000009	face	0.920323848724	1.0	0.8	n/a	n/a	298.027667999	298.031349182	299.02712512	n/a	01F_AN_O.jpg	01F_AN_O.jpg	02F_AN_O.jpg
299.168006182	1.8593020440000032	face	0.770503044128	1.0	0.8	n/a	n/a	301.027308226	301.030947208	302.026525021	n/a	MFZ_132.jpg	MFZ_132.jpg	MFZ_120.jpg
305.063617229	1.962960958999986	shape	0.636754989624	1.0	0.8	302.12296319	305.02654314	307.026578188	307.030961037	308.025068045	n/a	oval-horizontal.bmp	oval-vertical.bmp	oval-vertical.bmp
308.144413233	1.8813958169999976	shape	0.66810297966	1.0	0.8	n/a	n/a	310.02580905	310.029532194	311.025425196	n/a	circle.bmp	oval-vertical.bmp	oval-vertical.bmp
311.145865202	1.8796908850000025	shape	0.838384866714	1.0	0.8	n/a	n/a	313.025556087	313.029322147	314.025319099	n/a	oval-horizontal.bmp	oval-horizontal.bmp	oval-vertical.bmp
314.145323038	1.8798851969999648	shape	0.570522069931	1.0	0.8	n/a	n/a	316.025208235	316.029297113	317.024568081	n/a	oval-horizontal.bmp	oval-horizontal.bmp	circle.bmp
317.145547152	1.879535912999984	shape	0.75275683403	1.0	0.8	n/a	n/a	319.025083065	319.029068232	320.024445057	n/a	circle.bmp	circle.bmp	oval-vertical.bmp
320.144405127	1.880336045999968	shape	0.819570064545	1.0	0.8	n/a	n/a	322.024741173	322.028401136	323.024377108	n/a	oval-horizontal.bmp	circle.bmp	circle.bmp
326.103379011	1.920847177999974	face	1.18640995026	1.0	0.8	323.121016026	326.023873091	328.024226189	328.029266119	329.023468018	n/a	17F_FE_O.jpg	18F_FE_O.jpg	18F_FE_O.jpg
329.187706232	1.836203814000044	face	0.687163114548	1.0	0.8	n/a	n/a	331.023910046	331.027846098	332.022420168	n/a	42M_AN_O.jpg	43M_AN_O.jpg	43M_AN_O.jpg
332.190929174	1.8326270579999573	face	0.76718211174	1.0	0.8	n/a	n/a	334.023556232	334.027177095	335.022739172	n/a	31M_FE_O.jpg	31M_FE_O.jpg	32M_FE_O.jpg
335.159946203	1.863354921999985	face	0.734763860703	1.0	0.8	n/a	n/a	337.023301125	337.026959181	338.022236109	n/a	FAZ_212.jpg	FFZ_236.jpg	FFZ_236.jpg
338.186109066	1.8366110320000075	face	1.23662495613	1.0	0.8	n/a	n/a	340.022720098	340.026487112	341.022001028	n/a	06F_FE_O.jpg	06F_FE_O.jpg	08F_FE_O.jpg
341.156884193	1.8656268120000163	face	0.819617986679	1.0	0.8	n/a	n/a	343.022511005	343.026261091	344.02119422	n/a	MAZ_128.jpg	MAZ_128.jpg	MAX_39.jpg
347.060857058	1.961260079999988	shape	0.653532028198	1.0	0.8	344.12017107	347.021303177	349.022117138	349.026578188	350.021629095	n/a	circle.bmp	oval-vertical.bmp	oval-vertical.bmp
350.147127151	1.8743169310000096	shape	0.58265709877	1.0	0.8	n/a	n/a	352.021444082	352.025562048	353.020807028	n/a	oval-horizontal.bmp	oval-horizontal.bmp	circle.bmp
353.141873121	1.8798968790000004	shape	0.736148118973	1.0	0.8	n/a	n/a	355.02177	355.025443077	356.020251036	n/a	oval-horizontal.bmp	oval-vertical.bmp	oval-vertical.bmp
356.141667128	1.879034042000001	shape	1.32073783875	1.0	0.8	n/a	n/a	358.02070117	358.024457216	359.019911051	n/a	oval-horizontal.bmp	circle.bmp	circle.bmp
359.143059015	1.877570153000022	shape	0.770847082138	1.0	0.8	n/a	n/a	361.020629168	361.024239063	362.019781113	n/a	oval-horizontal.bmp	oval-horizontal.bmp	oval-vertical.bmp
362.14213109	1.8790650369999755	shape	0.666669130325	1.0	0.8	n/a	n/a	364.021196127	364.025326014	365.019456148	n/a	circle.bmp	circle.bmp	oval-vertical.bmp
368.074908018	1.944944143000044	face	0.637110948563	1.0	0.8	365.119330168	368.019148111	370.019852161	370.02443409	371.018887043	n/a	FFZ_18.jpg	FAZ_129.jpg	FAZ_129.jpg
371.182684183	1.8365318780000168	face	1.24633693695	1.0	0.8	n/a	n/a	373.019216061	373.023126125	374.01909709	n/a	20M_FE_O.jpg	24M_FE_O.jpg	24M_FE_O.jpg
374.162127018	1.85604715300002	face	1.02962303162	1.0	0.8	n/a	n/a	376.018174171	376.022406101	377.01809907	n/a	FAZ_23.jpg	FAX_25.jpg	FAX_25.jpg
377.182562113	1.836111068999969	face	0.746164083481	1.0	0.8	n/a	n/a	379.018673182	379.022709131	380.01750803	n/a	33M_FE_O.jpg	33M_FE_O.jpg	35M_FE_O.jpg
380.185392141	1.832669973999998	face	0.669842004776	1.0	0.8	n/a	n/a	382.018062115	382.02177906	383.017379045	n/a	01F_AN_O.jpg	01F_AN_O.jpg	02F_AN_O.jpg
383.161954165	1.8557288640000136	face	0.696979045868	1.0	0.8	n/a	n/a	385.017683029	385.021452188	386.017013073	394.416115999	MFZ_132.jpg	MFZ_132.jpg	MFZ_120.jpg
