onset	duration	trial_type	response_time	accuracy_binarized	tr_seconds	cueStartTime	cueEndTime	trialEndTime	fixStartTime	fixEndTime	runEndTime	stimLeft	stimTop	stimRight
11.0928659439	1.9539370537000007	shape	1.02417302132	1.0	0.8	8.04057312012	11.0304570198	13.0468029976	13.0632009506	14.0428299904	n/a	oval-horizontal.bmp	oval-horizontal.bmp	oval-vertical.bmp
14.1635029316	1.881810188300001	shape	1.13879990578	1.0	0.8	n/a	n/a	16.0453131199	16.0625739098	17.0452160835	n/a	oval-horizontal.bmp	oval-vertical.bmp	oval-vertical.bmp
17.1630930901	1.881398916200002	shape	0.736563920975	1.0	0.8	n/a	n/a	19.0444920063	19.061371088	20.0446939468	n/a	circle.bmp	circle.bmp	oval-vertical.bmp
20.1615679264	1.8823881149	shape	0.802503108978	1.0	0.8	n/a	n/a	22.0439560413	22.0598609447	23.0428860188	n/a	circle.bmp	oval-vertical.bmp	oval-vertical.bmp
23.1603090763	1.882303953200001	shape	0.819543123245	1.0	0.8	n/a	n/a	25.0426130295	25.0584170818	26.0422799587	n/a	oval-horizontal.bmp	circle.bmp	circle.bmp
26.1591329575	1.882488965900002	shape	0.964021921158	1.0	0.8	n/a	n/a	28.0416219234	28.0585269928	29.0411911011	n/a	oval-horizontal.bmp	oval-horizontal.bmp	circle.bmp
32.1072309017	1.9300751685999984	face	0.920148849487	1.0	0.8	29.1205360889	32.0405290127	34.0373060703	34.0530390739	35.0371000767	n/a	FAZ_23.jpg	FAZ_23.jpg	FAX_43.jpg
35.1881411076	1.8511378764999973	face	0.970914125443	1.0	0.8	n/a	n/a	37.0392789841	37.0549829006	38.038836956	n/a	26M_FE_O.jpg	26M_FE_O.jpg	27M_FE_O.BMP
38.1727380753	1.8655669688999976	face	0.852494001389	1.0	0.8	n/a	n/a	40.0383050442	40.0552339554	41.0380730629	n/a	MFX_16.jpg	MFZ_50.jpg	MFZ_50.jpg
41.2055339813	1.8318870068000024	face	0.953642845154	1.0	0.8	n/a	n/a	43.0374209881	43.0532970428	44.0365200043	n/a	09F_AN_O.jpg	09F_AN_O.jpg	10F_AN_O.jpg
44.1871700287	1.8488049507	face	0.685558080673	1.0	0.8	n/a	n/a	46.0359749794	46.0527660847	47.0356280804	n/a	38M_AN_O.BMP	39M_AN_O.jpg	39M_AN_O.jpg
47.1697120667	1.8656108379000005	face	0.953145027161	1.0	0.8	n/a	n/a	49.0353229046	49.0512599945	50.0350089073	n/a	FFZ_102.jpg	FFX_130.jpg	FFX_130.jpg
53.0800158978	1.9671142101	shape	0.636142015457	1.0	0.8	50.1148340702	53.0340759754	55.0471301079	55.0641269684	56.0465641022	n/a	oval-horizontal.bmp	oval-vertical.bmp	oval-vertical.bmp
56.1652920246	1.884360075000004	shape	0.689063072205	1.0	0.8	n/a	n/a	58.0496520996	58.0656290054	59.0492119789	n/a	circle.bmp	oval-vertical.bmp	oval-vertical.bmp
59.1664869785	1.8817739487000007	shape	0.66986989975	0.0	0.8	n/a	n/a	61.0482609272	61.0654098988	62.047590971	n/a	oval-horizontal.bmp	oval-horizontal.bmp	oval-vertical.bmp
62.1659660339	1.881624937100007	shape	0.850373029709	1.0	0.8	n/a	n/a	64.047590971	64.0640649796	65.0466580391	n/a	oval-horizontal.bmp	oval-horizontal.bmp	circle.bmp
65.1642069817	1.8817319869999949	shape	0.637284040451	1.0	0.8	n/a	n/a	67.0459389687	67.0630331039	68.0452060699	n/a	circle.bmp	circle.bmp	oval-vertical.bmp
68.1626679897	1.882997036000006	shape	1.26099610329	1.0	0.8	n/a	n/a	70.0456650257	70.0614640713	71.0444600582	n/a	oval-horizontal.bmp	circle.bmp	circle.bmp
74.1401789188	1.9007880687999967	face	1.2529361248	1.0	0.8	71.1251850128	74.0437309742	76.0409669876	76.0572419167	77.0413229465	n/a	03F_FE_O.jpg	05F_FE_O.jpg	05F_FE_O.jpg
77.1756958961	1.8667881489	face	0.738860845566	1.0	0.8	n/a	n/a	79.042484045	79.0596880913	80.042853117	n/a	FAZ_32.jpg	FAZ_32.jpg	FAX_45.jpg
80.1768341064	1.8654739857000069	face	1.30262112617	1.0	0.8	n/a	n/a	82.0423080921	82.0582010746	83.0416560173	n/a	MAZ_128.jpg	MAZ_101.jpg	MAZ_101.jpg
83.2104210854	1.830937862400006	face	1.01944899559	1.0	0.8	n/a	n/a	85.0413589478	85.0576689243	86.0396718979	n/a	11F_AN_O.jpg	11F_AN_O.jpg	12F_AN_O.jpg
86.1958470345	1.8440048693999955	face	0.729737997055	1.0	0.8	n/a	n/a	88.0398519039	88.0565459728	89.0391941071	n/a	26M_FE_O.jpg	33M_FE_O.jpg	33M_FE_O.jpg
89.1739099026	1.8645679950000016	face	0.959423065186	1.0	0.8	n/a	n/a	91.0384778976	91.0555570126	92.0378808975	n/a	MFZ_132.jpg	MFZ_132.jpg	MFZ_120.jpg
95.0845150948	1.9672839641000053	shape	0.918012142181	1.0	0.8	92.122248888	95.0378289223	97.0517990589	97.0671970844	98.0350980759	n/a	circle.bmp	oval-vertical.bmp	oval-vertical.bmp
98.1527540684	1.884070873599996	shape	0.9884121418	1.0	0.8	n/a	n/a	100.036824942	100.053581953	101.036232948	n/a	oval-horizontal.bmp	oval-horizontal.bmp	circle.bmp
101.153431892	1.8817780020000043	shape	0.766912937164	1.0	0.8	n/a	n/a	103.035209894	103.051429987	104.034972906	n/a	oval-horizontal.bmp	oval-vertical.bmp	oval-vertical.bmp
104.153250933	1.897902965	shape	0.968595981598	1.0	0.8	n/a	n/a	106.051153898	106.067701101	107.034020901	n/a	oval-horizontal.bmp	circle.bmp	circle.bmp
107.150933981	1.8993289470000008	shape	0.786734104156	1.0	0.8	n/a	n/a	109.050262928	109.065927982	110.049643993	n/a	oval-horizontal.bmp	oval-horizontal.bmp	oval-vertical.bmp
110.16682291	1.882610083000003	shape	0.727730035782	1.0	0.8	n/a	n/a	112.049432993	112.065646887	113.048145056	n/a	circle.bmp	circle.bmp	oval-vertical.bmp
116.111562014	1.9330270290000016	face	1.4034049511	1.0	0.8	113.133068085	116.048075914	118.044589043	118.061338902	119.047209024	n/a	FAZ_23.jpg	FAZ_23.jpg	FAX_43.jpg
119.198398113	1.8490638740000087	face	0.738182067871	1.0	0.8	n/a	n/a	121.047461987	121.063168049	122.046354055	n/a	26M_FE_O.jpg	26M_FE_O.jpg	27M_FE_O.BMP
122.180120945	1.8662760259999944	face	0.801987886429	1.0	0.8	n/a	n/a	124.046396971	124.062448025	125.04459691	n/a	MFZ_50.jpg	MFZ_50.jpg	MFX_16.jpg
125.212285995	1.832274913999996	face	1.35390210152	1.0	0.8	n/a	n/a	127.044560909	127.061728954	128.044034004	n/a	10F_AN_O.jpg	09F_AN_O.jpg	09F_AN_O.jpg
128.194611073	1.8494918339999915	face	0.903175115585	1.0	0.8	n/a	n/a	130.044102907	130.060271025	131.043021917	n/a	38M_AN_O.BMP	39M_AN_O.jpg	39M_AN_O.jpg
131.184684992	1.857755899000012	face	1.54391598701	1.0	0.8	n/a	n/a	133.042440891	133.058548927	134.042089939	n/a	FFZ_102.jpg	FFX_130.jpg	FFX_130.jpg
137.088630915	1.9494421480000028	shape	0.96838593483	1.0	0.8	134.130641937	137.040627956	139.038073063	139.055300951	140.040498972	n/a	oval-horizontal.bmp	oval-horizontal.bmp	oval-vertical.bmp
140.157706976	1.8829951290000224	shape	0.836981058121	1.0	0.8	n/a	n/a	142.040702105	142.056885958	143.039895058	n/a	oval-horizontal.bmp	oval-vertical.bmp	oval-vertical.bmp
143.156860113	1.8825669290000064	shape	0.702365875244	1.0	0.8	n/a	n/a	145.039427042	145.055150986	146.03865695	n/a	circle.bmp	circle.bmp	oval-vertical.bmp
146.155982018	1.8825840949999983	shape	0.719238996506	1.0	0.8	n/a	n/a	148.038566113	148.054708004	149.036252022	n/a	circle.bmp	oval-vertical.bmp	oval-vertical.bmp
149.171524048	1.8656580450000035	shape	0.752759218216	1.0	0.8	n/a	n/a	151.037182093	151.053755999	152.036541939	n/a	oval-horizontal.bmp	circle.bmp	circle.bmp
152.162683964	1.8738200660000075	shape	0.961249828339	1.0	0.8	n/a	n/a	154.03650403	154.052627087	155.035528898	n/a	oval-horizontal.bmp	oval-horizontal.bmp	circle.bmp
158.131930113	1.901416777999998	face	0.936064958572	0.0	0.8	155.123065948	158.034774065	160.033346891	160.049026966	161.051089048	n/a	20M_FE_O.jpg	21M_FE_O.jpg	21M_FE_O.jpg
161.218310118	1.832432984999997	face	n/a	0.0	0.8	n/a	n/a	163.050743103	163.066782951	164.049155951	n/a	01F_AN_O.jpg	07F_AN_O.jpg	07F_AN_O.jpg
164.183655977	1.865834952	face	1.31900405884	1.0	0.8	n/a	n/a	166.049490929	166.066392899	167.049293041	n/a	FFX_139.jpg	FFZ_102.jpg	FFZ_102.jpg
167.220563889	1.828203201000008	face	0.932936906815	1.0	0.8	n/a	n/a	169.04876709	169.06469202	170.046931982	n/a	23M_AN_O.jpg	23M_AN_O.jpg	22M_AN_O.jpg
170.188239098	1.859130859000004	face	0.811060190201	1.0	0.8	n/a	n/a	172.047369957	172.064150095	173.046857119	n/a	MAZ_146.jpg	MAZ_146.jpg	MAX_233.jpg
173.206243038	1.8399169449999988	face	n/a	0.0	0.8	n/a	n/a	175.046159983	175.062662125	176.045088053	n/a	15F_FE_O.jpg	15F_FE_O.jpg	16F_FE_O.jpg
179.095726013	1.946813106999997	shape	1.00297617912	1.0	0.8	176.136477947	179.045357943	181.04253912	181.059467077	182.043673038	n/a	oval-horizontal.bmp	oval-vertical.bmp	oval-vertical.bmp
182.176989079	1.866806983000004	shape	0.637338876724	1.0	0.8	n/a	n/a	184.043796062	184.06103611	185.043245077	n/a	circle.bmp	oval-vertical.bmp	oval-vertical.bmp
185.162169933	1.881294966000013	shape	0.718607902527	1.0	0.8	n/a	n/a	187.043464899	187.060055017	188.042802095	n/a	oval-horizontal.bmp	oval-horizontal.bmp	oval-vertical.bmp
188.163172007	1.8785059450000008	shape	0.68218588829	1.0	0.8	n/a	n/a	190.041677952	190.057842016	191.040589094	n/a	oval-horizontal.bmp	oval-horizontal.bmp	circle.bmp
191.158888102	1.8820459840000008	shape	1.00243210793	1.0	0.8	n/a	n/a	193.040934086	193.056986094	194.040623903	n/a	circle.bmp	circle.bmp	oval-vertical.bmp
194.166397095	1.873574018	shape	0.777179956436	1.0	0.8	n/a	n/a	196.039971113	196.055969954	197.03933692	n/a	oval-horizontal.bmp	circle.bmp	circle.bmp
200.102730989	1.9340019229999823	face	0.853410959244	1.0	0.8	197.129040956	200.03780508	202.036732912	202.052602053	203.037853003	n/a	FFX_54.jpg	FFX_54.jpg	FAX_51.jpg
203.20637989	1.8315691950000144	face	0.87110710144	1.0	0.8	n/a	n/a	205.037949085	205.054101944	206.037085056	n/a	40M_FE_O.BMP	41M_FE_O.jpg	41M_FE_O.jpg
206.203802109	1.8329889769999848	face	0.867647886276	1.0	0.8	n/a	n/a	208.036791086	208.053369999	209.035583973	n/a	29M_AN_O.jpg	29M_AN_O.jpg	28M_AN_O.jpg
209.202963114	1.8316969869999864	face	0.919476032257	1.0	0.8	n/a	n/a	211.034660101	211.05189395	212.035037041	n/a	FFZ_18.jpg	FFZ_29.jpg	FFZ_29.jpg
212.20241189	1.8482241629999976	face	0.902529001236	1.0	0.8	n/a	n/a	214.050636053	214.06773901	215.034074068	n/a	19F_AN_O.jpg	19F_AN_O.jpg	09F_AN_O.jpg
215.176043987	1.8738770489999863	face	0.743220806122	1.0	0.8	n/a	n/a	217.049921036	217.066733122	218.049288034	n/a	MFZ_132.jpg	MFZ_7.jpg	MFZ_7.jpg
221.096673965	1.9501440530000025	shape	0.802697181702	1.0	0.8	218.143755913	221.048748016	223.046818018	223.06328392	224.047822952	n/a	circle.bmp	oval-vertical.bmp	oval-vertical.bmp
224.181216002	1.8668370239999768	shape	0.903439998627	1.0	0.8	n/a	n/a	226.048053026	226.064613104	227.047655106	n/a	oval-horizontal.bmp	oval-horizontal.bmp	circle.bmp
227.181499958	1.865055084000005	shape	0.667082071304	1.0	0.8	n/a	n/a	229.046555042	229.062489986	230.045979977	n/a	oval-horizontal.bmp	oval-vertical.bmp	oval-vertical.bmp
230.180341959	1.8645119669999983	shape	0.768484115601	1.0	0.8	n/a	n/a	232.044853926	232.061990023	233.045073986	n/a	oval-horizontal.bmp	circle.bmp	circle.bmp
233.168545008	1.875943898999992	shape	0.862782001495	1.0	0.8	n/a	n/a	235.044488907	235.061173916	236.043708086	n/a	oval-horizontal.bmp	oval-horizontal.bmp	oval-vertical.bmp
236.170783997	1.8729538910000088	shape	0.776927947998	1.0	0.8	n/a	n/a	238.043737888	238.060386896	239.04312396	n/a	circle.bmp	circle.bmp	oval-vertical.bmp
242.126837969	1.9156961439999804	face	1.587692976	1.0	0.8	239.139036894	242.042318106	244.042534113	244.05844593	245.040705919	n/a	20M_FE_O.jpg	21M_FE_O.jpg	21M_FE_O.jpg
245.209502935	1.8312630660000195	face	0.768374204636	1.0	0.8	n/a	n/a	247.040766001	247.058059931	248.040683985	n/a	07F_AN_O.jpg	07F_AN_O.jpg	01F_AN_O.jpg
248.191518068	1.848052979000016	face	0.785044908524	1.0	0.8	n/a	n/a	250.039571047	250.05685997	251.039748907	n/a	FFZ_102.jpg	FFZ_102.jpg	FFX_139.jpg
251.224208117	1.8142859929999984	face	1.01679587364	1.0	0.8	n/a	n/a	253.03849411	253.055403948	254.038352966	n/a	22M_AN_O.jpg	23M_AN_O.jpg	23M_AN_O.jpg
254.179018021	1.8590569490000348	face	0.745100021362	1.0	0.8	n/a	n/a	256.03807497	256.054172039	257.037390947	n/a	MAX_233.jpg	MAZ_146.jpg	MAZ_146.jpg
257.205622911	1.8317010410000307	face	1.70842695236	1.0	0.8	n/a	n/a	259.037323952	259.053497076	260.036036968	n/a	15F_FE_O.jpg	15F_FE_O.jpg	16F_FE_O.jpg
263.084114075	1.9512469769999825	shape	1.16999602318	1.0	0.8	260.13299489	263.036048889	265.035361052	265.051656961	266.035252094	n/a	oval-horizontal.bmp	oval-horizontal.bmp	oval-vertical.bmp
266.168916941	1.8660540579999747	shape	0.869903087616	1.0	0.8	n/a	n/a	268.034970999	268.05091691	269.034267902	n/a	oval-horizontal.bmp	oval-vertical.bmp	oval-vertical.bmp
269.167788029	1.8830380439999883	shape	0.75214600563	1.0	0.8	n/a	n/a	271.050826073	271.066328049	272.048924923	n/a	circle.bmp	circle.bmp	oval-vertical.bmp
272.183339119	1.866092920000028	shape	0.586287975311	1.0	0.8	n/a	n/a	274.049432039	274.065702915	275.048612118	n/a	circle.bmp	oval-vertical.bmp	oval-vertical.bmp
275.173698902	1.8742351529999723	shape	0.776729106903	1.0	0.8	n/a	n/a	277.047934055	277.064944029	278.047544003	n/a	oval-horizontal.bmp	circle.bmp	circle.bmp
278.174714088	1.8722388750000505	shape	0.742419958115	1.0	0.8	n/a	n/a	280.046952963	280.064105034	281.047063112	n/a	oval-horizontal.bmp	oval-horizontal.bmp	circle.bmp
284.110903025	1.934530972999994	face	0.769459962845	1.0	0.8	281.148503065	284.04612112	286.045433998	286.062526941	287.044922113	n/a	FFZ_18.jpg	FAZ_129.jpg	FAZ_129.jpg
287.228846073	1.8160359859999744	face	1.13548803329	1.0	0.8	n/a	n/a	289.044882059	289.061728001	290.044285059	n/a	20M_FE_O.jpg	24M_FE_O.jpg	24M_FE_O.jpg
290.195435047	1.847740889000022	face	1.68548297882	1.0	0.8	n/a	n/a	292.043175936	292.060435057	293.043590069	n/a	FAZ_23.jpg	FAX_25.jpg	FAX_25.jpg
293.214751005	1.8279449940000063	face	0.798797130585	1.0	0.8	n/a	n/a	295.042695999	295.05931592	296.042083025	n/a	33M_FE_O.jpg	33M_FE_O.jpg	35M_FE_O.jpg
296.217293978	1.8243660919999911	face	0.812516927719	1.0	0.8	n/a	n/a	298.04166007	298.058756113	299.040690899	n/a	01F_AN_O.jpg	01F_AN_O.jpg	02F_AN_O.jpg
299.194773912	1.8462591179999777	face	1.26930999756	1.0	0.8	n/a	n/a	301.04103303	301.057569027	302.040551901	n/a	MFZ_132.jpg	MFZ_132.jpg	MFZ_120.jpg
305.087007999	1.952049017000036	shape	0.719691991806	1.0	0.8	302.138212919	305.039669037	307.039057016	307.055548906	308.038948059	n/a	oval-horizontal.bmp	oval-vertical.bmp	oval-vertical.bmp
308.173022032	1.866070986000011	shape	0.736582994461	1.0	0.8	n/a	n/a	310.039093018	310.054718971	311.038058043	n/a	circle.bmp	oval-vertical.bmp	oval-vertical.bmp
311.172812939	1.864603996000028	shape	1.06784510612	1.0	0.8	n/a	n/a	313.037416935	313.053606987	314.036173105	n/a	oval-horizontal.bmp	oval-horizontal.bmp	oval-vertical.bmp
314.17098403	1.865668057999983	shape	0.686121940613	1.0	0.8	n/a	n/a	316.036652088	316.052736044	317.035809994	n/a	oval-horizontal.bmp	oval-horizontal.bmp	circle.bmp
317.169660091	1.865809917999968	shape	0.961720943451	1.0	0.8	n/a	n/a	319.035470009	319.052239895	320.034053087	n/a	circle.bmp	circle.bmp	oval-vertical.bmp
320.168658972	1.8660790920000068	shape	0.740751028061	1.0	0.8	n/a	n/a	322.034738064	322.051465988	323.050394058	n/a	oval-horizontal.bmp	circle.bmp	circle.bmp
326.1483531	1.901341914999989	face	1.42188096046	0.0	0.8	323.1479671	326.049158096	328.049695015	328.066608906	329.04906106	n/a	17F_FE_O.jpg	18F_FE_O.jpg	18F_FE_O.jpg
329.233525038	1.81528806700004	face	0.753720998764	1.0	0.8	n/a	n/a	331.048813105	331.0650599	332.048433065	n/a	42M_AN_O.jpg	43M_AN_O.jpg	43M_AN_O.jpg
332.232969999	1.8143880370000147	face	0.865865945816	1.0	0.8	n/a	n/a	334.047358036	334.064353943	335.046711922	n/a	31M_FE_O.jpg	31M_FE_O.jpg	32M_FE_O.jpg
335.199640989	1.84703898500004	face	0.686152935028	1.0	0.8	n/a	n/a	337.046679974	337.063065052	338.045373917	n/a	FAZ_212.jpg	FFZ_236.jpg	FFZ_236.jpg
338.221436977	1.8239419459999908	face	0.727874040604	1.0	0.8	n/a	n/a	340.045378923	340.062036991	341.044699907	n/a	06F_FE_O.jpg	06F_FE_O.jpg	08F_FE_O.jpg
341.196027994	1.8487980369999943	face	0.791723966599	1.0	0.8	n/a	n/a	343.044826031	343.061048031	344.044054985	n/a	MAZ_128.jpg	MAZ_128.jpg	MAX_39.jpg
347.091445923	1.9521071910000387	shape	0.9215259552	1.0	0.8	344.15040493	347.043236017	349.043553114	349.05982089	350.04191494	n/a	circle.bmp	oval-vertical.bmp	oval-vertical.bmp
350.176441908	1.8660240169999724	shape	0.819849014282	1.0	0.8	n/a	n/a	352.042465925	352.058701992	353.042078972	n/a	oval-horizontal.bmp	oval-horizontal.bmp	circle.bmp
353.175302982	1.86571812699998	shape	0.786151885986	1.0	0.8	n/a	n/a	355.041021109	355.057286978	356.040252924	n/a	oval-horizontal.bmp	oval-vertical.bmp	oval-vertical.bmp
356.174794912	1.865319014000022	shape	0.702083110809	1.0	0.8	n/a	n/a	358.040113926	358.05705595	359.039329052	n/a	oval-horizontal.bmp	circle.bmp	circle.bmp
359.173573971	1.865009068999996	shape	0.743983983994	1.0	0.8	n/a	n/a	361.03858304	361.05568099	362.037697077	n/a	oval-horizontal.bmp	oval-horizontal.bmp	oval-vertical.bmp
362.172260046	1.8659129139999773	shape	0.709427118301	1.0	0.8	n/a	n/a	364.03817296	364.054773092	365.037483931	n/a	circle.bmp	circle.bmp	oval-vertical.bmp
368.102174044	1.9350309370000216	face	0.804962873459	1.0	0.8	365.140017986	368.036578894	370.037204981	370.053158045	371.036187887	n/a	FFZ_18.jpg	FAZ_129.jpg	FAZ_129.jpg
371.219949007	1.81617188499996	face	1.25239086151	1.0	0.8	n/a	n/a	373.036120892	373.052585125	374.034250021	n/a	20M_FE_O.jpg	24M_FE_O.jpg	24M_FE_O.jpg
374.18876791	1.862618207999958	face	0.683057069778	1.0	0.8	n/a	n/a	376.051386118	376.068089962	377.050482988	n/a	FAZ_23.jpg	FAX_25.jpg	FAX_25.jpg
377.223165989	1.8268001079999865	face	0.797350883484	1.0	0.8	n/a	n/a	379.049966097	379.066906929	380.049124002	n/a	33M_FE_O.jpg	33M_FE_O.jpg	35M_FE_O.jpg
380.233741999	1.815809010999999	face	0.824681043625	1.0	0.8	n/a	n/a	382.04955101	382.065129995	383.048729897	n/a	01F_AN_O.jpg	01F_AN_O.jpg	02F_AN_O.jpg
383.21061492	1.837889194000013	face	0.722883939743	1.0	0.8	n/a	n/a	385.048504114	385.064862013	386.047705889	394.444979906	MFZ_132.jpg	MFZ_132.jpg	MFZ_120.jpg
