onset	duration	trial_type	response_time	accuracy_binarized	tr_seconds	cueStartTime	cueEndTime	trialEndTime	fixStartTime	fixEndTime	runEndTime	stimLeft	stimTop	stimRight
11.11178994178772	1.96734309196472	shape	1.30022001266	1.0	0.8	8.067499876022339	11.061993837356567	13.07913303375244	13.111605882644652	14.07867193222046	n/a	oval-horizontal.bmp	oval-horizontal.bmp	oval-vertical.bmp
14.17839002609253	1.900371789932251	shape	1.23336315155	1.0	0.8	n/a	n/a	16.07876181602478	16.11179494857788	17.07870388031006	n/a	oval-horizontal.bmp	oval-vertical.bmp	oval-vertical.bmp
17.16171097755432	1.933876037597656	shape	1.10018205643	1.0	0.8	n/a	n/a	19.095587015151978	19.1283118724823	20.09536004066468	n/a	circle.bmp	circle.bmp	oval-vertical.bmp
20.178396940231323	1.9006309509277344	shape	0.80002784729	1.0	0.8	n/a	n/a	22.079027891159058	22.111676931381226	23.07878398895264	n/a	circle.bmp	oval-vertical.bmp	oval-vertical.bmp
23.17873287200928	1.900120973587036	shape	1.03363990784	1.0	0.8	n/a	n/a	25.07885384559632	25.111657857894897	26.07876300811768	n/a	oval-horizontal.bmp	circle.bmp	circle.bmp
26.16178297996521	1.933920860290528	shape	0.800154924393	1.0	0.8	n/a	n/a	28.095703840255737	28.12839698791504	29.09546995162964	n/a	oval-horizontal.bmp	oval-horizontal.bmp	circle.bmp
32.161844968795776	1.9023690223693848	face	1.10204291344	1.0	0.8	29.14866185188293	32.078837871551514	34.06421399116516	34.095386028289795	35.06494784355164	n/a	FAZ_23.jpg	FAZ_23.jpg	FAX_43.jpg
35.19579482078552	1.8683390617370603	face	1.03253483772	1.0	0.8	n/a	n/a	37.06413388252258	37.09539985656738	38.06502103805542	n/a	26M_FE_O.jpg	26M_FE_O.jpg	27M_FE_O.BMP
38.1791558265686	1.9017760753631592	face	0.864784002304	1.0	0.8	n/a	n/a	40.08093190193176	40.1121518611908	41.08165788650513	n/a	MFX_16.jpg	MFZ_50.jpg	MFZ_50.jpg
41.21264982223511	1.868151187896736	face	1.39892196655	1.0	0.8	n/a	n/a	43.08080101013184	43.112205028533936	44.081729888916016	n/a	09F_AN_O.jpg	09F_AN_O.jpg	10F_AN_O.jpg
44.2125608921051	1.8684089183807373	face	1.06582093239	1.0	0.8	n/a	n/a	46.08096981048584	46.112244844436646	47.08188581466675	n/a	38M_AN_O.BMP	39M_AN_O.jpg	39M_AN_O.jpg
47.19589686393738	1.8683969974517824	face	1.29902386665	1.0	0.8	n/a	n/a	49.06429386138916	49.095484018325806	50.06515288352966	n/a	FFZ_102.jpg	FFX_130.jpg	FFX_130.jpg
53.12909483909607	1.9358830451965328	shape	0.833818912506	0.0	0.8	50.11340403556824	53.08134698867798	55.0649778842926	55.095563888549805	56.06521987915039	n/a	oval-horizontal.bmp	oval-vertical.bmp	oval-vertical.bmp
56.14579796791077	1.93582892417907	shape	0.766584873199	1.0	0.8	n/a	n/a	58.08162689208984	58.112342834472656	59.081862926483154	n/a	circle.bmp	oval-vertical.bmp	oval-vertical.bmp
59.16247797012329	1.9024598598480225	shape	1.16629004478	1.0	0.8	n/a	n/a	61.06493782997131	61.09560298919678	62.06523990631104	n/a	oval-horizontal.bmp	oval-horizontal.bmp	oval-vertical.bmp
62.14584493637085	1.9358649253845213	shape	0.799941062927	1.0	0.8	n/a	n/a	64.08170986175537	64.1123948097229	65.0819149017334	n/a	oval-horizontal.bmp	oval-horizontal.bmp	circle.bmp
65.162526845932	1.9024031162261963	shape	0.899307012558	1.0	0.8	n/a	n/a	67.0649299621582	67.09573602676392	68.0653338432312	n/a	circle.bmp	circle.bmp	oval-vertical.bmp
68.1458899974823	1.9358599185943604	shape	0.732956886292	1.0	0.8	n/a	n/a	70.08174991607666	70.11244487762451	71.08195495605469	n/a	oval-horizontal.bmp	circle.bmp	circle.bmp
74.16273403167725	1.9024388790130613	face	1.13284301758	1.0	0.8	71.12827181816101	74.06489086151123	76.06517291069031	76.09586095809937	77.06533002853394	n/a	03F_FE_O.jpg	05F_FE_O.jpg	05F_FE_O.jpg
77.17928194999695	1.902347087860108	face	0.831726074219	1.0	0.8	n/a	n/a	79.08162903785706	79.11262202262878	80.08202004432678	n/a	FAZ_32.jpg	FAZ_32.jpg	FAX_45.jpg
80.19604992866516	1.8687069416046145	face	n/a	0.0	0.8	n/a	n/a	82.06475687026978	82.09590697288513	83.06538701057434	n/a	MAZ_128.jpg	MAZ_101.jpg	MAZ_101.jpg
83.19620394706726	1.868366956710816	face	1.23263216019	1.0	0.8	n/a	n/a	85.06457090377808	85.09580183029175	86.06557583808899	n/a	11F_AN_O.jpg	11F_AN_O.jpg	12F_AN_O.jpg
86.2129418849945	1.868628978729248	face	1.43270897865	1.0	0.8	n/a	n/a	88.08157086372375	88.11261701583862	89.08209180831909	n/a	26M_FE_O.jpg	33M_FE_O.jpg	33M_FE_O.jpg
89.1961178779602	1.8684451580047607	face	0.999227046967	1.0	0.8	n/a	n/a	91.06456303596497	91.0961368083954	92.06558084487916	n/a	MFZ_132.jpg	MFZ_132.jpg	MFZ_120.jpg
95.12942004203796	1.9358339309692385	shape	0.93377494812	1.0	0.8	92.12124395370483	95.08153200149536	97.0652539730072	97.09588503837584	98.06550598144533	n/a	circle.bmp	oval-vertical.bmp	oval-vertical.bmp
98.14602994918825	1.9361920356750344	shape	0.733197927475	1.0	0.8	n/a	n/a	100.08222198486328	100.11271786689758	101.08220601081848	n/a	oval-horizontal.bmp	oval-horizontal.bmp	circle.bmp
101.17949295043944	1.9025568962097168	shape	0.765379905701	1.0	0.8	n/a	n/a	103.08204984664916	103.11267590522766	104.08231496810912	n/a	oval-horizontal.bmp	oval-vertical.bmp	oval-vertical.bmp
104.17967486381532	1.9025261402129985	shape	1.36531090736	1.0	0.8	n/a	n/a	106.08220100402832	106.11284399032591	107.0822548866272	n/a	oval-horizontal.bmp	circle.bmp	circle.bmp
107.17954182624815	1.9024360179901263	shape	0.765244960785	1.0	0.8	n/a	n/a	109.08197784423828	109.11291098594666	110.08228993415833	n/a	oval-horizontal.bmp	oval-horizontal.bmp	oval-vertical.bmp
110.17985200881958	1.9020788669586184	shape	0.798558235168	1.0	0.8	n/a	n/a	112.0819308757782	112.11296892166138	113.0823209285736	n/a	circle.bmp	circle.bmp	oval-vertical.bmp
116.12978386878969	1.93511700630188	face	0.866295814514	1.0	0.8	113.132239818573	116.06512904167175	118.06490087509157	118.09606695175172	119.0656759738922	n/a	FAZ_23.jpg	FAZ_23.jpg	FAX_43.jpg
119.1964819431305	1.8683640956878664	face	1.09896302223	1.0	0.8	n/a	n/a	121.06484603881836	121.09609889984132	122.06570386886597	n/a	26M_FE_O.jpg	26M_FE_O.jpg	27M_FE_O.BMP
122.1798448562622	1.901710033416748	face	0.998601913452	1.0	0.8	n/a	n/a	124.08155488967896	124.1128749847412	125.0824489593506	n/a	MFZ_50.jpg	MFZ_50.jpg	MFX_16.jpg
125.21318793296814	1.8683600425720213	face	1.13232493401	1.0	0.8	n/a	n/a	127.08154797554016	127.11289191246031	128.0824329853058	n/a	10F_AN_O.jpg	09F_AN_O.jpg	09F_AN_O.jpg
128.2132270336151	1.8683228492736816	face	1.09935617447	1.0	0.8	n/a	n/a	130.0815498828888	130.11290383338928	131.08246183395386	n/a	38M_AN_O.BMP	39M_AN_O.jpg	39M_AN_O.jpg
131.19647097587583	1.8684849739074991	face	0.999292850494	1.0	0.8	n/a	n/a	133.06495594978333	133.09627294540405	134.06581687927246	n/a	FFZ_102.jpg	FFX_130.jpg	FFX_130.jpg
137.1297619342804	1.935823917388916	shape	1.03393507004	1.0	0.8	134.11517000198364	137.08197784423828	139.0655858516693	139.09624481201172	140.06586003303528	n/a	oval-horizontal.bmp	oval-horizontal.bmp	oval-vertical.bmp
140.1463749408722	1.9358470439910889	shape	0.899587869644	1.0	0.8	n/a	n/a	142.08222198486328	142.1130039691925	143.08258986473083	n/a	oval-horizontal.bmp	oval-vertical.bmp	oval-vertical.bmp
143.17981791496277	1.9024019241333008	shape	0.631893873215	1.0	0.8	n/a	n/a	145.08221983909607	145.11301183700562	146.08256196975708	n/a	circle.bmp	circle.bmp	oval-vertical.bmp
146.1801519393921	1.902065992355347	shape	0.765470981598	1.0	0.8	n/a	n/a	148.08221793174744	148.1130518913269	149.08263492584229	n/a	circle.bmp	oval-vertical.bmp	oval-vertical.bmp
149.17993187904358	1.902256965637207	shape	0.698621034622	1.0	0.8	n/a	n/a	151.0821888446808	151.11308097839355	152.0826358795166	n/a	oval-horizontal.bmp	circle.bmp	circle.bmp
152.18018794059753	1.902137994766236	shape	0.832619905472	1.0	0.8	n/a	n/a	154.08232593536377	154.113098859787	155.08268785476685	n/a	oval-horizontal.bmp	oval-horizontal.bmp	circle.bmp
158.16340804100037	1.90177583694458	face	1.1328151226	1.0	0.8	155.1348819732666	158.0655379295349	160.06518387794495	160.0964159965515	161.0660388469696	n/a	20M_FE_O.jpg	21M_FE_O.jpg	21M_FE_O.jpg
161.21353197097778	1.8687360286712649	face	0.932518005371	1.0	0.8	n/a	n/a	163.08226799964905	163.11326694488525	164.0827569961548	n/a	01F_AN_O.jpg	07F_AN_O.jpg	07F_AN_O.jpg
164.2135739326477	1.8682870864868164	face	0.86602807045	1.0	0.8	n/a	n/a	166.08186101913452	166.11319303512573	167.08276796340942	n/a	FFX_139.jpg	FFZ_102.jpg	FFZ_102.jpg
167.2136368751526	1.8683209419250488	face	1.09901595116	1.0	0.8	n/a	n/a	169.08195781707764	169.11322903633118	170.08277797698975	n/a	23M_AN_O.jpg	23M_AN_O.jpg	22M_AN_O.jpg
170.19717502593994	1.8680989742279053	face	0.865689992905	1.0	0.8	n/a	n/a	172.06527400016785	172.0964870452881	173.06608390808103	n/a	MAZ_146.jpg	MAZ_146.jpg	MAX_233.jpg
173.19691681861875	1.8683290481567667	face	1.39895701408	1.0	0.8	n/a	n/a	175.0652458667755	175.09653997421265	176.06621289253235	n/a	15F_FE_O.jpg	15F_FE_O.jpg	16F_FE_O.jpg
179.13035702705383	1.9359188079833984	shape	1.13356804848	1.0	0.8	176.11793994903564	179.08223581314087	181.06627583503723	181.09660983085632	182.06624603271484	n/a	oval-horizontal.bmp	oval-vertical.bmp	oval-vertical.bmp
182.1636028289795	1.9026670455932613	shape	0.832988023758	1.0	0.8	n/a	n/a	184.06626987457275	184.0967619419098	185.0662679672241	n/a	circle.bmp	oval-vertical.bmp	oval-vertical.bmp
185.1635038852692	1.9026620388031008	shape	0.766419887543	1.0	0.8	n/a	n/a	187.0661659240723	187.0966329574585	188.06616687774653	n/a	oval-horizontal.bmp	oval-horizontal.bmp	oval-vertical.bmp
188.1635229587555	1.902384042739868	shape	0.866381168365	1.0	0.8	n/a	n/a	190.06590700149536	190.0966420173645	191.066321849823	n/a	oval-horizontal.bmp	oval-horizontal.bmp	circle.bmp
191.16354894638064	1.902380943298312	shape	0.699474096298	1.0	0.8	n/a	n/a	193.06592988967896	193.09673500061035	194.0662558078766	n/a	circle.bmp	circle.bmp	oval-vertical.bmp
194.1635680198669	1.902392864227324	shape	0.799471855164	1.0	0.8	n/a	n/a	196.06596088409424	196.09670901298523	197.0664358139038	n/a	oval-horizontal.bmp	circle.bmp	circle.bmp
200.163635969162	1.9019029140472408	face	0.766164064407	1.0	0.8	197.1270809173584	200.0824828147888	202.06553888320923	202.0967469215393	203.0664780139923	n/a	FFX_54.jpg	FFX_54.jpg	FAX_51.jpg
203.2139508724213	1.868526935577336	face	0.999197006226	1.0	0.8	n/a	n/a	205.08247780799863	205.11354088783264	206.0830509662628	n/a	40M_FE_O.BMP	41M_FE_O.jpg	41M_FE_O.jpg
206.21376204490664	1.8683888912200644	face	0.832329034805	1.0	0.8	n/a	n/a	208.0821509361267	208.1135368347168	209.08319187164307	n/a	29M_AN_O.jpg	29M_AN_O.jpg	28M_AN_O.jpg
209.2142038345337	1.8684790134429927	face	1.03276085854	1.0	0.8	n/a	n/a	211.08268284797668	211.1136050224304	212.08309388160703	n/a	FFZ_18.jpg	FFZ_29.jpg	FFZ_29.jpg
212.2138948440552	1.8683521747588827	face	0.765625953674	1.0	0.8	n/a	n/a	214.0822470188141	214.1135699748993	215.08316683769223	n/a	19F_AN_O.jpg	19F_AN_O.jpg	09F_AN_O.jpg
215.21389603614807	1.868801832199125	face	1.03264689445	1.0	0.8	n/a	n/a	217.0826978683472	217.1136469841004	218.0831549167633	n/a	MFZ_132.jpg	MFZ_7.jpg	MFZ_7.jpg
221.1139419078827	1.93572998046875	shape	0.800390958786	1.0	0.8	218.1363809108734	221.06597185134888	223.04967188835144	223.08048796653748	224.0831868648529	n/a	circle.bmp	oval-vertical.bmp	oval-vertical.bmp
224.1804838180542	1.902513027191162	shape	0.66526389122	1.0	0.8	n/a	n/a	226.08299684524536	226.11368703842163	227.0833208560944	n/a	oval-horizontal.bmp	oval-horizontal.bmp	circle.bmp
227.18069696426392	1.902567863464356	shape	0.898566961288	1.0	0.8	n/a	n/a	229.08326482772827	229.11384201049805	230.0832278728485	n/a	oval-horizontal.bmp	oval-vertical.bmp	oval-vertical.bmp
230.18051981925964	1.902414083480835	shape	0.665125846863	1.0	0.8	n/a	n/a	232.08293390274048	232.11371397972107	233.0833089351654	n/a	oval-horizontal.bmp	circle.bmp	circle.bmp
233.18069696426392	1.902299880981445	shape	1.06539416313	0.0	0.8	n/a	n/a	235.08299684524536	235.11392188072205	236.08335399627688	n/a	oval-horizontal.bmp	oval-horizontal.bmp	oval-vertical.bmp
236.18075895309448	1.9021949768066408	shape	0.698443174362	1.0	0.8	n/a	n/a	238.08295392990112	238.11378383636475	239.08332681655884	n/a	circle.bmp	circle.bmp	oval-vertical.bmp
242.16405391693115	1.90185809135437	face	0.966562986374	1.0	0.8	239.1371049880981	242.06620502471924	244.06591200828552	244.09706902503967	245.06668400764465	n/a	20M_FE_O.jpg	21M_FE_O.jpg	21M_FE_O.jpg
245.2141809463501	1.8683378696441368	face	0.765700101852	1.0	0.8	n/a	n/a	247.08251881599423	247.11385083198547	248.08336091041565	n/a	07F_AN_O.jpg	07F_AN_O.jpg	01F_AN_O.jpg
248.1973869800568	1.868514060974093	face	0.965817928314	1.0	0.8	n/a	n/a	250.06590104103088	250.09710502624512	251.06665992736816	n/a	FFZ_102.jpg	FFZ_102.jpg	FFX_139.jpg
251.21443700790405	1.8680839538574217	face	0.932339191437	1.0	0.8	n/a	n/a	253.08252096176147	253.1139030456543	254.083429813385	n/a	22M_AN_O.jpg	23M_AN_O.jpg	23M_AN_O.jpg
254.1976368427277	1.8683321475982384	face	0.832375049591	1.0	0.8	n/a	n/a	256.0659689903259	256.0971848964691	257.06677293777466	n/a	MAX_233.jpg	MAZ_146.jpg	MAZ_146.jpg
257.21445989608765	1.8681881427764893	face	1.1324698925	1.0	0.8	n/a	n/a	259.08264803886414	259.11395502090454	260.083447933197	n/a	15F_FE_O.jpg	15F_FE_O.jpg	16F_FE_O.jpg
263.1143448352814	1.9356210231781008	shape	0.966753959656	1.0	0.8	260.1383149623871	263.06631898880005	265.0499658584595	265.08063888549805	266.0834848880768	n/a	oval-horizontal.bmp	oval-horizontal.bmp	oval-vertical.bmp
266.1807818412781	1.902432203292847	shape	1.13190889359	1.0	0.8	n/a	n/a	268.0832140445709	268.1140079498291	269.08353900909424	n/a	oval-horizontal.bmp	oval-vertical.bmp	oval-vertical.bmp
269.1810100078583	1.902087926864624	shape	0.698828935623	1.0	0.8	n/a	n/a	271.0830979347229	271.11410784721375	272.0835738182068	n/a	circle.bmp	circle.bmp	oval-vertical.bmp
272.18085503578186	1.902395009994564	shape	0.73192191124	1.0	0.8	n/a	n/a	274.0832500457764	274.11406087875366	275.0835859775543	n/a	circle.bmp	oval-vertical.bmp	oval-vertical.bmp
275.18106293678284	1.9021730422973635	shape	1.1656229496	1.0	0.8	n/a	n/a	277.0832359790802	277.114061832428	278.08358883857727	n/a	oval-horizontal.bmp	circle.bmp	circle.bmp
278.1808760166168	1.9024670124053955	shape	0.965632915497	1.0	0.8	n/a	n/a	280.0833430290222	280.11410903930664	281.0836579799652	n/a	oval-horizontal.bmp	oval-horizontal.bmp	circle.bmp
284.1309268474579	1.9353761672973635	face	0.89959692955	1.0	0.8	281.139545917511	284.0664839744568	286.06630301475525	286.0974118709564	287.0669758319855	n/a	FFZ_18.jpg	FAZ_129.jpg	FAZ_129.jpg
287.2145519256592	1.8683741092681885	face	1.19915604591	1.0	0.8	n/a	n/a	289.08292603492737	289.1141769886017	290.08371901512146	n/a	20M_FE_O.jpg	24M_FE_O.jpg	24M_FE_O.jpg
290.1979010105133	1.8683269023895264	face	1.06583809853	1.0	0.8	n/a	n/a	292.06622791290283	292.09744787216187	293.06703901290894	n/a	FAZ_23.jpg	FAX_25.jpg	FAX_25.jpg
293.2147409915924	1.8682348728179927	face	0.865947961807	1.0	0.8	n/a	n/a	295.0829758644104	295.1141970157624	296.0837359428406	n/a	33M_FE_O.jpg	33M_FE_O.jpg	35M_FE_O.jpg
296.2312099933624	1.8352909088134768	face	0.865622997284	1.0	0.8	n/a	n/a	298.0665009021759	298.0976188182831	299.0670998096466	n/a	01F_AN_O.jpg	01F_AN_O.jpg	02F_AN_O.jpg
299.1810758113861	1.901879072189331	face	0.964742183685	1.0	0.8	n/a	n/a	301.08295488357544	301.1142728328705	302.08390188217163	n/a	MFZ_132.jpg	MFZ_132.jpg	MFZ_120.jpg
305.1310889720917	1.9358549118041992	shape	1.40026092529	1.0	0.8	302.1467590332031	305.0832140445709	307.0669438838959	307.0976150035858	308.06721591949463	n/a	oval-horizontal.bmp	oval-vertical.bmp	oval-vertical.bmp
308.16445302963257	1.9025437831878664	shape	1.19944405556	1.0	0.8	n/a	n/a	310.06699681282043	310.09761095047	311.0671830177307	n/a	circle.bmp	oval-vertical.bmp	oval-vertical.bmp
311.16448187828064	1.9024460315704343	shape	1.09962701797	1.0	0.8	n/a	n/a	313.0669279098511	313.0976068973541	314.06727600097656	n/a	oval-horizontal.bmp	oval-horizontal.bmp	oval-vertical.bmp
314.164479970932	1.902951002120972	shape	0.932683229446	1.0	0.8	n/a	n/a	316.067430973053	316.0977430343628	317.0672369003296	n/a	oval-horizontal.bmp	oval-horizontal.bmp	circle.bmp
317.1645188331604	1.902393102645874	shape	1.06612110138	1.0	0.8	n/a	n/a	319.0669119358063	319.0976498126984	320.06741285324097	n/a	circle.bmp	circle.bmp	oval-vertical.bmp
320.18122386932373	1.9025120735168457	shape	1.33213090897	1.0	0.8	n/a	n/a	322.0837359428406	322.11443400383	323.0839309692383	n/a	oval-horizontal.bmp	circle.bmp	circle.bmp
326.1990399360657	1.868161916732788	face	1.099640131	1.0	0.8	323.1416130065918	326.06695795059204	328.06720185279846	328.09782886505127	329.0673198699951	n/a	17F_FE_O.jpg	18F_FE_O.jpg	18F_FE_O.jpg
329.214802980423	1.868377923965454	face	1.09894394875	1.0	0.8	n/a	n/a	331.0831809043884	331.1144788265228	332.08414697647095	n/a	42M_AN_O.jpg	43M_AN_O.jpg	43M_AN_O.jpg
332.2313129901886	1.8355920314788816	face	0.999444007874	1.0	0.8	n/a	n/a	334.0669050216675	334.09792304039	335.0673608779907	n/a	31M_FE_O.jpg	31M_FE_O.jpg	32M_FE_O.jpg
335.1815400123596	1.9016799926757808	face	0.964644908905	1.0	0.8	n/a	n/a	337.0832200050354	337.1145348548889	338.08416390419006	n/a	FAZ_212.jpg	FFZ_236.jpg	FFZ_236.jpg
338.23146295547485	1.835555076599121	face	0.898905992508	1.0	0.8	n/a	n/a	340.067018032074	340.09803891181946	341.0673818588257	n/a	06F_FE_O.jpg	06F_FE_O.jpg	08F_FE_O.jpg
341.181382894516	1.901831150054932	face	1.03162097931	1.0	0.8	n/a	n/a	343.0832140445709	343.1145849227905	344.0842399597168	n/a	MAZ_128.jpg	MAZ_128.jpg	MAX_39.jpg
347.13140082359314	1.9363131523132324	shape	1.10023593903	1.0	0.8	344.15148401260376	347.0836570262909	349.0677139759064	349.09798192977905	350.0674669742584	n/a	circle.bmp	oval-vertical.bmp	oval-vertical.bmp
350.1649580001831	1.9022629261016848	shape	1.03293395042	1.0	0.8	n/a	n/a	352.0672209262848	352.0981559753418	353.0674889087677	n/a	oval-horizontal.bmp	oval-horizontal.bmp	circle.bmp
353.16478300094604	1.9023768901824951	shape	1.16622400284	1.0	0.8	n/a	n/a	355.06715989112854	355.0979268550873	356.0675280094147	n/a	oval-horizontal.bmp	oval-vertical.bmp	oval-vertical.bmp
356.1649580001831	1.902655839920044	shape	0.732843160629	0.0	0.8	n/a	n/a	358.06761384010315	358.09807682037354	359.067519903183	n/a	oval-horizontal.bmp	circle.bmp	circle.bmp
359.1648600101471	1.9024038314819336	shape	0.96639418602	1.0	0.8	n/a	n/a	361.067263841629	361.097944021225	362.0676448345184	n/a	oval-horizontal.bmp	oval-horizontal.bmp	oval-vertical.bmp
362.1989920139313	1.868644952774048	shape	0.799402952194	1.0	0.8	n/a	n/a	364.0676369667053	364.098210811615	365.0676038265228	n/a	circle.bmp	circle.bmp	oval-vertical.bmp
368.14825797080994	1.9352569580078125	face	1.16622400284	1.0	0.8	365.1275978088379	368.0837669372559	370.08351492881775	370.11501002311707	371.0842750072479	n/a	FFZ_18.jpg	FAZ_129.jpg	FAZ_129.jpg
371.23193192482	1.834842920303288	face	0.999205112457	1.0	0.8	n/a	n/a	373.0667748451233	373.0980608463288	374.0676238536835	n/a	20M_FE_O.jpg	24M_FE_O.jpg	24M_FE_O.jpg
374.1816129684448	1.9019019603729248	face	0.998127937317	1.0	0.8	n/a	n/a	376.08351492881775	376.1148099899292	377.084321975708	n/a	FAZ_23.jpg	FAX_25.jpg	FAX_25.jpg
377.2317578792572	1.835093975067139	face	0.699068069458	1.0	0.8	n/a	n/a	379.06685185432434	379.0981600284576	380.0676758289337	n/a	33M_FE_O.jpg	33M_FE_O.jpg	35M_FE_O.jpg
380.2152128219605	1.8682971000670816	face	0.732589006424	1.0	0.8	n/a	n/a	382.0835099220276	382.11485385894775	383.0843949317932	n/a	01F_AN_O.jpg	01F_AN_O.jpg	02F_AN_O.jpg
383.21539282798767	1.868178129196167	face	1.29923200607	1.0	0.8	n/a	n/a	385.08357095718384	385.1148669719696	386.08437490463257	394.4677770137787	MFZ_132.jpg	MFZ_132.jpg	MFZ_120.jpg
