onset	duration	trial_type	response_time	accuracy_binarized	tr_seconds	cueStartTime	cueEndTime	trialEndTime	fixStartTime	fixEndTime	runEndTime	stimLeft	stimTop	stimRight
11.0984351635	1.9413068295	shape	0.762017011642	1.0	0.8	8.03225898743	11.0233180523	13.039741993	13.056636095	14.0388650894	n/a	oval-horizontal.bmp	oval-horizontal.bmp	oval-vertical.bmp
14.1669762135	1.871631860699999	shape	0.641616106033	1.0	0.8	n/a	n/a	16.0386080742	16.0553770065	17.0375380516	n/a	oval-horizontal.bmp	oval-vertical.bmp	oval-vertical.bmp
17.1518831253	1.8833758831000007	shape	0.850543022156	1.0	0.8	n/a	n/a	19.0352590084	19.0517940521	20.0351290703	n/a	circle.bmp	circle.bmp	oval-vertical.bmp
20.1529271603	1.8846149444000029	shape	0.636915922165	1.0	0.8	n/a	n/a	22.0375421047	22.0536310673	23.0369710922	n/a	circle.bmp	oval-vertical.bmp	oval-vertical.bmp
23.154266119	1.8821148872	shape	0.617227077484	1.0	0.8	n/a	n/a	25.0363810062	25.0531191826	26.0358140469	n/a	oval-horizontal.bmp	circle.bmp	circle.bmp
26.1528429985	1.8814821243	shape	0.635962963104	1.0	0.8	n/a	n/a	28.0343251228	28.0511801243	29.0336611271	n/a	oval-horizontal.bmp	oval-horizontal.bmp	circle.bmp
32.1171011925	1.9167528151999988	face	0.710389852524	1.0	0.8	29.1127500534	32.0334160328	34.0338540077	34.0494852066	35.0325241089	n/a	FAZ_23.jpg	FAZ_23.jpg	FAX_43.jpg
35.1944651604	1.8381278514999977	face	0.758530855179	1.0	0.8	n/a	n/a	37.0325930119	37.0488610268	38.0311009884	n/a	26M_FE_O.jpg	26M_FE_O.jpg	27M_FE_O.BMP
38.1655490398	1.863276958500002	face	0.670275211334	1.0	0.8	n/a	n/a	40.0288259983	40.0460350513	41.0312190056	n/a	MFX_16.jpg	MFZ_50.jpg	MFZ_50.jpg
41.1974740028	1.8335042	face	0.737060070038	1.0	0.8	n/a	n/a	43.0309782028	43.0474951267	44.0296180248	n/a	09F_AN_O.jpg	09F_AN_O.jpg	10F_AN_O.jpg
44.1818830967	1.8483810425000016	face	0.685698986053	1.0	0.8	n/a	n/a	46.0302641392	46.0460391045	47.0282301903	n/a	38M_AN_O.BMP	39M_AN_O.jpg	39M_AN_O.jpg
47.163225174	1.8655278682000045	face	0.63654088974	1.0	0.8	n/a	n/a	49.0287530422	49.0454480648	50.0280070305	n/a	FFZ_102.jpg	FFX_130.jpg	FFX_130.jpg
53.0937571526	1.949939012500004	shape	0.577357053757	1.0	0.8	50.1108651161	53.0434691906	55.0436961651	55.0601861477	56.0430641174	n/a	oval-horizontal.bmp	oval-vertical.bmp	oval-vertical.bmp
56.1543951035	1.8834829329999965	shape	0.757551908493	1.0	0.8	n/a	n/a	58.0378780365	58.0541951656	59.0375790596	n/a	circle.bmp	oval-vertical.bmp	oval-vertical.bmp
59.1562690735	1.8832581042999976	shape	0.63683795929	1.0	0.8	n/a	n/a	61.0395271778	61.0550920963	62.0407850742	n/a	oval-horizontal.bmp	oval-horizontal.bmp	oval-vertical.bmp
62.1574041843	1.8840909005000053	shape	0.587724924088	1.0	0.8	n/a	n/a	64.0414950848	64.057723999	65.0404880047	n/a	oval-horizontal.bmp	oval-horizontal.bmp	circle.bmp
65.1575610638	1.8826560974000013	shape	0.653883934021	1.0	0.8	n/a	n/a	67.0402171612	67.0572271347	68.0388410091	n/a	circle.bmp	circle.bmp	oval-vertical.bmp
68.1562511921	1.8821868895999927	shape	0.689790964127	1.0	0.8	n/a	n/a	70.0384380817	70.0547862053	71.038367033	n/a	oval-horizontal.bmp	circle.bmp	circle.bmp
74.1302900314	1.9070830345000047	face	0.645542860031	1.0	0.8	71.1301670074	74.0371861458	76.0373730659	76.0533092022	77.0361130238	n/a	03F_FE_O.jpg	05F_FE_O.jpg	05F_FE_O.jpg
77.1707661152	1.8649399279999983	face	0.575144052505	1.0	0.8	n/a	n/a	79.0357060432	79.0529661179	80.0354650021	n/a	FAZ_32.jpg	FAZ_32.jpg	FAX_45.jpg
80.1661770344	1.866089105600011	face	1.30367898941	1.0	0.8	n/a	n/a	82.03226614	82.0491621494	83.0352640152	n/a	MAZ_128.jpg	MAZ_101.jpg	MAZ_101.jpg
83.2026281357	1.831764936400006	face	0.837769031525	1.0	0.8	n/a	n/a	85.0343930721	85.050702095	86.0340280533	n/a	11F_AN_O.jpg	11F_AN_O.jpg	12F_AN_O.jpg
86.2020552158	1.8312537669999929	face	0.685323953629	1.0	0.8	n/a	n/a	88.0333089828	88.0503411293	89.0325021744	n/a	26M_FE_O.jpg	33M_FE_O.jpg	33M_FE_O.jpg
89.1670742035	1.865424871400009	face	0.638687849045	1.0	0.8	n/a	n/a	91.0324990749	91.0491352081	92.0316641331	n/a	MFZ_132.jpg	MFZ_132.jpg	MFZ_120.jpg
95.082062006	1.9480791091999947	shape	0.777338027954	1.0	0.8	92.1199510098	95.0306081772	97.0301411152	97.0465610027	98.029635191	n/a	circle.bmp	oval-vertical.bmp	oval-vertical.bmp
98.1471121311	1.8818490509000008	shape	0.657978057861	1.0	0.8	n/a	n/a	100.028961182	100.046162128	101.028523207	n/a	oval-horizontal.bmp	oval-horizontal.bmp	circle.bmp
101.143634081	1.9002389909999948	shape	0.5874979496	1.0	0.8	n/a	n/a	103.043873072	103.059724092	104.028408051	n/a	oval-horizontal.bmp	oval-vertical.bmp	oval-vertical.bmp
104.144640207	1.8998849390000032	shape	0.57025384903	1.0	0.8	n/a	n/a	106.044525146	106.061453104	107.027740002	n/a	oval-horizontal.bmp	circle.bmp	circle.bmp
107.146818161	1.896235943000008	shape	0.550666093826	1.0	0.8	n/a	n/a	109.043054104	109.060308218	110.042714119	n/a	oval-horizontal.bmp	oval-horizontal.bmp	oval-vertical.bmp
110.160801172	1.8819818499999883	shape	0.60214805603	1.0	0.8	n/a	n/a	112.042783022	112.059007168	113.042035103	n/a	circle.bmp	circle.bmp	oval-vertical.bmp
116.100932121	1.939425946	face	0.92450594902	1.0	0.8	113.129034042	116.04075408	118.040358067	118.056939125	119.039759159	n/a	FAZ_23.jpg	FAZ_23.jpg	FAX_43.jpg
119.190784216	1.849027872000008	face	0.62172794342	1.0	0.8	n/a	n/a	121.039812088	121.056364059	122.035789013	n/a	26M_FE_O.jpg	26M_FE_O.jpg	27M_FE_O.BMP
122.173900127	1.863805056000004	face	0.637156009674	1.0	0.8	n/a	n/a	124.037705183	124.054075003	125.03710413	n/a	MFZ_50.jpg	MFZ_50.jpg	MFX_16.jpg
125.204873085	1.835907935999998	face	0.62087893486	1.0	0.8	n/a	n/a	127.040781021	127.05542016	128.040072203	n/a	10F_AN_O.jpg	09F_AN_O.jpg	09F_AN_O.jpg
128.188277006	1.8511281010000005	face	0.601238012314	1.0	0.8	n/a	n/a	130.039405107	130.053313017	131.039164066	n/a	38M_AN_O.BMP	39M_AN_O.jpg	39M_AN_O.jpg
131.188449144	1.848028898999985	face	0.685292005539	1.0	0.8	n/a	n/a	133.036478043	133.052419186	134.034579039	n/a	FFZ_102.jpg	FFX_130.jpg	FFX_130.jpg
137.085012197	1.949311972000004	shape	0.543838977814	1.0	0.8	134.130930185	137.0342381	139.034324169	139.05093503	140.033640146	n/a	oval-horizontal.bmp	oval-horizontal.bmp	oval-vertical.bmp
140.162442207	1.867220879000001	shape	0.791564941406	1.0	0.8	n/a	n/a	142.029663086	142.045152187	143.028659105	n/a	oval-horizontal.bmp	oval-vertical.bmp	oval-vertical.bmp
143.163554192	1.8693130009999948	shape	0.636125802994	1.0	0.8	n/a	n/a	145.032867193	145.049131155	146.032143116	n/a	circle.bmp	circle.bmp	oval-vertical.bmp
146.164508104	1.8669641019999967	shape	0.588083028793	1.0	0.8	n/a	n/a	148.031472206	148.048826218	149.031373024	n/a	circle.bmp	oval-vertical.bmp	oval-vertical.bmp
149.166079998	1.8652200700000208	shape	0.55166387558	1.0	0.8	n/a	n/a	151.031300068	151.047315121	152.029159069	n/a	oval-horizontal.bmp	circle.bmp	circle.bmp
152.164390087	1.865335941000012	shape	0.702597856522	1.0	0.8	n/a	n/a	154.029726028	154.046164989	155.028741121	n/a	oval-horizontal.bmp	oval-horizontal.bmp	circle.bmp
158.128354073	1.9000370500000088	face	1.0413339138	1.0	0.8	155.129989147	158.0279181	160.028391123	160.043471098	161.043898106	n/a	20M_FE_O.jpg	21M_FE_O.jpg	21M_FE_O.jpg
161.222870111	1.816575051000001	face	0.773495912552	1.0	0.8	n/a	n/a	163.039445162	163.056555986	164.040243149	n/a	01F_AN_O.jpg	07F_AN_O.jpg	07F_AN_O.jpg
164.207039118	1.8361010550000003	face	0.802273988724	1.0	0.8	n/a	n/a	166.043140173	166.058912992	167.042018175	n/a	FFX_139.jpg	FFZ_102.jpg	FFZ_102.jpg
167.225551128	1.8165159229999968	face	0.851521968842	1.0	0.8	n/a	n/a	169.042067051	169.058468103	170.041165113	n/a	23M_AN_O.jpg	23M_AN_O.jpg	22M_AN_O.jpg
170.208301067	1.8328299529999867	face	0.669322013855	1.0	0.8	n/a	n/a	172.04113102	172.05748105	173.040355206	n/a	MAZ_146.jpg	MAZ_146.jpg	MAX_233.jpg
173.224828005	1.8149061199999887	face	0.869668006897	1.0	0.8	n/a	n/a	175.039734125	175.055801153	176.039139032	n/a	15F_FE_O.jpg	15F_FE_O.jpg	16F_FE_O.jpg
179.089091063	1.9487421509999765	shape	0.94282579422	1.0	0.8	176.142994165	179.03839016	181.037833214	181.054565191	182.037206173	n/a	oval-horizontal.bmp	oval-vertical.bmp	oval-vertical.bmp
182.166077137	1.8712658880000104	shape	0.622555971146	1.0	0.8	n/a	n/a	184.037343025	184.053515196	185.032979012	n/a	circle.bmp	oval-vertical.bmp	oval-vertical.bmp
185.16742301	1.869803189999999	shape	0.652601003647	1.0	0.8	n/a	n/a	187.0372262	187.053247213	188.036101103	n/a	oval-horizontal.bmp	oval-horizontal.bmp	oval-vertical.bmp
188.169478178	1.865990877000001	shape	0.636862039566	1.0	0.8	n/a	n/a	190.035469055	190.051374197	191.033967018	n/a	oval-horizontal.bmp	oval-horizontal.bmp	circle.bmp
191.168964148	1.865027904000016	shape	0.669283866882	1.0	0.8	n/a	n/a	193.033992052	193.050983191	194.033704996	n/a	circle.bmp	circle.bmp	oval-vertical.bmp
194.155866146	1.8774309160000089	shape	0.598979949951	1.0	0.8	n/a	n/a	196.033297062	196.049359083	197.032149076	n/a	oval-horizontal.bmp	circle.bmp	circle.bmp
200.099361181	1.932447910999997	face	0.59291100502	1.0	0.8	197.128287077	200.031588078	202.031809092	202.048105001	203.03097415	n/a	FFX_54.jpg	FFX_54.jpg	FAX_51.jpg
203.196580172	1.8466358179999816	face	0.62463092804	1.0	0.8	n/a	n/a	205.04321599	205.05943799	206.043416023	n/a	40M_FE_O.BMP	41M_FE_O.jpg	41M_FE_O.jpg
206.211757183	1.8184850220000044	face	0.634552001953	1.0	0.8	n/a	n/a	208.030242205	208.045822144	209.029405117	n/a	29M_AN_O.jpg	29M_AN_O.jpg	28M_AN_O.jpg
209.180208206	1.8491878510000104	face	0.769315958023	1.0	0.8	n/a	n/a	211.029396057	211.046114206	212.028004169	n/a	FFZ_18.jpg	FFZ_29.jpg	FFZ_29.jpg
212.195676088	1.8322749140000096	face	1.03682494164	1.0	0.8	n/a	n/a	214.027951002	214.04464221	215.027302027	n/a	19F_AN_O.jpg	19F_AN_O.jpg	09F_AN_O.jpg
215.177424192	1.8657479290000083	face	0.686764955521	1.0	0.8	n/a	n/a	217.043172121	217.059394121	218.042026043	n/a	MFZ_132.jpg	MFZ_7.jpg	MFZ_7.jpg
221.093413115	1.9482688900000085	shape	0.659440994263	1.0	0.8	218.137942076	221.0419662	223.041682005	223.058117151	224.04015708	n/a	circle.bmp	oval-vertical.bmp	oval-vertical.bmp
224.170801163	1.8663079739999944	shape	0.569607019424	1.0	0.8	n/a	n/a	226.037109137	226.054277182	227.037510157	n/a	oval-horizontal.bmp	oval-horizontal.bmp	circle.bmp
227.17206502	1.868295192000005	shape	0.703663110733	1.0	0.8	n/a	n/a	229.040360212	229.056782007	230.039400101	n/a	oval-horizontal.bmp	oval-vertical.bmp	oval-vertical.bmp
230.173265219	1.8654899590000007	shape	0.703348875046	1.0	0.8	n/a	n/a	232.038755178	232.05507803	233.03829217	n/a	oval-horizontal.bmp	circle.bmp	circle.bmp
233.172685146	1.865257979000006	shape	0.520001888275	1.0	0.8	n/a	n/a	235.037943125	235.054166079	236.037077188	n/a	oval-horizontal.bmp	oval-horizontal.bmp	oval-vertical.bmp
236.171626091	1.8655169010000063	shape	0.602993011475	1.0	0.8	n/a	n/a	238.037142992	238.05335021	239.036091089	n/a	circle.bmp	circle.bmp	oval-vertical.bmp
242.128591061	1.9066510199999984	face	1.07585906982	1.0	0.8	239.132550001	242.035384178	244.035242081	244.05155921	245.034448147	n/a	20M_FE_O.jpg	21M_FE_O.jpg	21M_FE_O.jpg
245.202087164	1.8284509179999875	face	0.637235879898	1.0	0.8	n/a	n/a	247.030538082	247.047982216	248.031437159	n/a	07F_AN_O.jpg	07F_AN_O.jpg	01F_AN_O.jpg
248.182459116	1.8508760930000108	face	0.771529197693	1.0	0.8	n/a	n/a	250.033335209	250.049885988	251.032630205	n/a	FFZ_102.jpg	FFZ_102.jpg	FFX_139.jpg
251.217083216	1.8150157930000148	face	0.654731035233	1.0	0.8	n/a	n/a	253.032099009	253.04974103	254.03215313	n/a	22M_AN_O.jpg	23M_AN_O.jpg	23M_AN_O.jpg
254.182940006	1.8479011060000232	face	0.93535399437	1.0	0.8	n/a	n/a	256.030841112	256.048058033	257.030642986	n/a	MAX_233.jpg	MAZ_146.jpg	MAZ_146.jpg
257.203592062	1.826751946999991	face	0.7799680233	1.0	0.8	n/a	n/a	259.030344009	259.046842098	260.030290127	n/a	15F_FE_O.jpg	15F_FE_O.jpg	16F_FE_O.jpg
263.080949068	1.9471240039999884	shape	0.658397912979	1.0	0.8	260.125662088	263.028687	265.028073072	265.045112133	266.027652025	n/a	oval-horizontal.bmp	oval-horizontal.bmp	oval-vertical.bmp
266.162626028	1.8793950080000168	shape	0.553383111954	1.0	0.8	n/a	n/a	268.042021036	268.057919025	269.041494131	n/a	oval-horizontal.bmp	oval-vertical.bmp	oval-vertical.bmp
269.176789999	1.866600037000012	shape	0.735896110535	1.0	0.8	n/a	n/a	271.043390036	271.060306072	272.043395996	n/a	circle.bmp	circle.bmp	oval-vertical.bmp
272.177746058	1.8649170389999767	shape	0.853280067444	1.0	0.8	n/a	n/a	274.042663097	274.05876112	275.04235816	n/a	circle.bmp	oval-vertical.bmp	oval-vertical.bmp
275.176666021	1.8649830819999809	shape	0.837378978729	1.0	0.8	n/a	n/a	277.041649103	277.058168173	278.04027915	n/a	oval-horizontal.bmp	circle.bmp	circle.bmp
278.175015211	1.8659198290000063	shape	0.519898891449	1.0	0.8	n/a	n/a	280.04093504	280.056802034	281.040030003	n/a	oval-horizontal.bmp	oval-horizontal.bmp	circle.bmp
284.106595039	1.932492018000005	face	0.625216960907	1.0	0.8	281.139362097	284.038885117	286.039087057	286.054681063	287.038192987	n/a	FFZ_18.jpg	FAZ_129.jpg	FAZ_129.jpg
287.219183207	1.8161849969999933	face	1.08695578575	1.0	0.8	n/a	n/a	289.035368204	289.051347017	290.035663128	n/a	20M_FE_O.jpg	24M_FE_O.jpg	24M_FE_O.jpg
290.185532093	1.851830006	face	0.655301094055	1.0	0.8	n/a	n/a	292.037362099	292.054212093	293.036641121	n/a	FAZ_23.jpg	FAX_25.jpg	FAX_25.jpg
293.220729113	1.8149368759999904	face	0.816931962967	1.0	0.8	n/a	n/a	295.035665989	295.053174019	296.035101175	n/a	33M_FE_O.jpg	33M_FE_O.jpg	35M_FE_O.jpg
296.220203161	1.8142800330000453	face	0.935690164566	1.0	0.8	n/a	n/a	298.034483194	298.050939083	299.034284115	n/a	01F_AN_O.jpg	01F_AN_O.jpg	02F_AN_O.jpg
299.18473506	1.84960699100003	face	0.701934099197	1.0	0.8	n/a	n/a	301.034342051	301.049926996	302.033057213	n/a	MFZ_132.jpg	MFZ_132.jpg	MFZ_120.jpg
305.083339214	1.9492428310000487	shape	0.542124032974	1.0	0.8	302.132865191	305.032734156	307.032582045	307.048592091	308.031177044	n/a	oval-horizontal.bmp	oval-vertical.bmp	oval-vertical.bmp
308.161396027	1.8678991789999488	shape	0.703275918961	1.0	0.8	n/a	n/a	310.029295206	310.044697046	311.028236151	n/a	circle.bmp	oval-vertical.bmp	oval-vertical.bmp
311.163649082	1.8672270779999849	shape	0.670542001724	1.0	0.8	n/a	n/a	313.03087616	313.046956062	314.029834986	n/a	oval-horizontal.bmp	oval-horizontal.bmp	oval-vertical.bmp
314.164578199	1.8649139409999973	shape	0.521448135376	1.0	0.8	n/a	n/a	316.02949214	316.047056198	317.029153109	n/a	oval-horizontal.bmp	oval-horizontal.bmp	circle.bmp
317.165860176	1.862578869000004	shape	0.580945014954	1.0	0.8	n/a	n/a	319.028439045	319.044714212	320.027925014	n/a	circle.bmp	circle.bmp	oval-vertical.bmp
320.162431002	1.8654990189999687	shape	0.52042889595	1.0	0.8	n/a	n/a	322.027930021	322.044005156	323.043791056	n/a	oval-horizontal.bmp	circle.bmp	circle.bmp
326.137408018	1.9051961900000265	face	0.908149957657	1.0	0.8	323.148214102	326.043051004	328.042604208	328.059125185	329.041357994	n/a	17F_FE_O.jpg	18F_FE_O.jpg	18F_FE_O.jpg
329.222081184	1.8171858790000213	face	0.769592046738	1.0	0.8	n/a	n/a	331.039267063	331.055772066	332.041203022	n/a	42M_AN_O.jpg	43M_AN_O.jpg	43M_AN_O.jpg
332.223556995	1.816745042999969	face	0.704408168793	1.0	0.8	n/a	n/a	334.040302038	334.057561159	335.040055037	n/a	31M_FE_O.jpg	31M_FE_O.jpg	32M_FE_O.jpg
335.194390059	1.8451609609999764	face	0.636358976364	1.0	0.8	n/a	n/a	337.03955102	337.05689311	338.038995028	n/a	FAZ_212.jpg	FFZ_236.jpg	FFZ_236.jpg
338.223340988	1.8159620760000053	face	0.602933883667	1.0	0.8	n/a	n/a	340.039303064	340.055217981	341.037567139	n/a	06F_FE_O.jpg	06F_FE_O.jpg	08F_FE_O.jpg
341.189339161	1.8484208579999968	face	0.683970928192	1.0	0.8	n/a	n/a	343.037760019	343.054350138	344.036998987	n/a	MAZ_128.jpg	MAZ_128.jpg	MAX_39.jpg
347.081063032	1.9546511170000256	shape	0.657862901688	1.0	0.8	344.140720129	347.035762072	349.035714149	349.052489042	350.035649061	n/a	circle.bmp	oval-vertical.bmp	oval-vertical.bmp
350.16979003	1.863531111999976	shape	0.520699977875	1.0	0.8	n/a	n/a	352.033321142	352.049312115	353.034496069	n/a	oval-horizontal.bmp	oval-horizontal.bmp	circle.bmp
353.167817116	1.866400003000024	shape	0.53453207016	1.0	0.8	n/a	n/a	355.034217119	355.051445007	356.033841133	n/a	oval-horizontal.bmp	oval-vertical.bmp	oval-vertical.bmp
356.167889118	1.866091013000016	shape	0.586774110794	1.0	0.8	n/a	n/a	358.033980131	358.04937315	359.032479048	n/a	oval-horizontal.bmp	circle.bmp	circle.bmp
359.166512012	1.865857124999991	shape	0.486764907837	1.0	0.8	n/a	n/a	361.032369137	361.048907042	362.031033993	n/a	oval-horizontal.bmp	oval-horizontal.bmp	oval-vertical.bmp
362.182566166	1.848660945999996	shape	0.617683887482	1.0	0.8	n/a	n/a	364.031227112	364.048117161	365.030450106	n/a	circle.bmp	circle.bmp	oval-vertical.bmp
368.092097044	1.9377889630000027	face	0.575626850128	1.0	0.8	365.137164116	368.029612064	370.029886007	370.045868158	371.02869916	n/a	FFZ_18.jpg	FAZ_129.jpg	FAZ_129.jpg
371.213397026	1.8299331669999788	face	0.936188936234	1.0	0.8	n/a	n/a	373.043330193	373.059353113	374.028253078	n/a	20M_FE_O.jpg	24M_FE_O.jpg	24M_FE_O.jpg
374.194581985	1.8334162239999607	face	0.655138015747	1.0	0.8	n/a	n/a	376.027998209	376.043839216	377.027768135	n/a	FAZ_23.jpg	FAX_25.jpg	FAX_25.jpg
377.212108135	1.8318469530000243	face	0.502019166946	1.0	0.8	n/a	n/a	379.043955088	379.06061101	380.0429461	n/a	33M_FE_O.jpg	33M_FE_O.jpg	35M_FE_O.jpg
380.261849165	1.7802069190000225	face	0.736435890198	1.0	0.8	n/a	n/a	382.042056084	382.058230162	383.041395187	n/a	01F_AN_O.jpg	01F_AN_O.jpg	02F_AN_O.jpg
383.243456125	1.7982349399999862	face	0.587839126587	1.0	0.8	n/a	n/a	385.041691065	385.057781219	386.041029215	394.43891716	MFZ_132.jpg	MFZ_132.jpg	MFZ_120.jpg
