onset	duration	trial_type	response_time	accuracy_binarized	tr_seconds	cueStartTime	cueEndTime	trialEndTime	fixStartTime	fixEndTime	runEndTime	stimLeft	stimTop	stimRight
11.0823299885	1.9519469738	shape	1.4559481144	1.0	0.8	8.02792596817	11.0176980495	13.0342769623	13.0508289337	14.0334379673	n/a	oval-horizontal.bmp	oval-horizontal.bmp	oval-vertical.bmp
14.1502280235	1.883253097599999	shape	0.986218929291	1.0	0.8	n/a	n/a	16.0334811211	16.0498371124	17.0319859982	n/a	oval-horizontal.bmp	oval-vertical.bmp	oval-vertical.bmp
17.135972023	1.896187067	shape	0.833967924118	1.0	0.8	n/a	n/a	19.03215909	19.0488910675	20.0313351154	n/a	circle.bmp	circle.bmp	oval-vertical.bmp
20.1324980259	1.8989140987000008	shape	0.854520082474	1.0	0.8	n/a	n/a	22.0314121246	22.0472760201	23.0307209492	n/a	circle.bmp	oval-vertical.bmp	oval-vertical.bmp
23.1313271523	1.8995418548000025	shape	0.795984983444	1.0	0.8	n/a	n/a	25.0308690071	25.0469851494	26.02947402	n/a	oval-horizontal.bmp	circle.bmp	circle.bmp
26.1308169365	1.894426107400001	shape	0.72357416153	1.0	0.8	n/a	n/a	28.0252430439	28.0411801338	29.0247540474	n/a	oval-horizontal.bmp	oval-horizontal.bmp	circle.bmp
32.1118330956	1.9174540042000032	face	0.771785020828	1.0	0.8	29.0974619389	32.0288231373	34.0292870998	34.0452721119	35.0285999775	n/a	FAZ_23.jpg	FAZ_23.jpg	FAX_43.jpg
35.1796700954	1.8475139142000003	face	0.900280952454	1.0	0.8	n/a	n/a	37.0271840096	37.0436971188	38.0272550583	n/a	26M_FE_O.jpg	26M_FE_O.jpg	27M_FE_O.BMP
38.1617529392	1.864838123300004	face	0.80365896225	1.0	0.8	n/a	n/a	40.0265910625	40.0437979698	41.0264079571	n/a	MFX_16.jpg	MFZ_50.jpg	MFZ_50.jpg
41.1761469841	1.8503050803999983	face	0.720798015594	1.0	0.8	n/a	n/a	43.0264520645	43.0428409576	44.025177002	n/a	09F_AN_O.jpg	09F_AN_O.jpg	10F_AN_O.jpg
44.1681470871	1.857275962799996	face	1.22891783714	1.0	0.8	n/a	n/a	46.0254230499	46.0420219898	47.0248169899	n/a	38M_AN_O.BMP	39M_AN_O.jpg	39M_AN_O.jpg
47.1530060768	1.8719198704000064	face	0.909583806992	1.0	0.8	n/a	n/a	49.0249259472	49.0415580273	50.0202901363	n/a	FFZ_102.jpg	FFX_130.jpg	FFX_130.jpg
53.073112011	1.951514959299999	shape	0.721718788147	1.0	0.8	50.1018090248	53.024105072	55.0246269703	55.0407569408	56.0228681564	n/a	oval-horizontal.bmp	oval-vertical.bmp	oval-vertical.bmp
56.1406230927	1.8822579383000004	shape	0.736411094666	1.0	0.8	n/a	n/a	58.022881031	58.039577961	59.0223331451	n/a	circle.bmp	oval-vertical.bmp	oval-vertical.bmp
59.1403610706	1.8820788860999969	shape	0.550206899643	0.0	0.8	n/a	n/a	61.0224399567	61.0387670994	62.0213251114	n/a	oval-horizontal.bmp	oval-horizontal.bmp	oval-vertical.bmp
62.1279499531	1.8935520649000068	shape	0.681931972504	1.0	0.8	n/a	n/a	64.021502018	64.03789711	65.020856142	n/a	oval-horizontal.bmp	oval-horizontal.bmp	circle.bmp
65.1307029724	1.890009164799992	shape	0.744905948639	1.0	0.8	n/a	n/a	67.0207121372	67.0369751453	68.0198390484	n/a	circle.bmp	circle.bmp	oval-vertical.bmp
68.132174015	1.88824892049999	shape	0.76007604599	1.0	0.8	n/a	n/a	70.0204229355	70.0367391109	71.0325961113	n/a	oval-horizontal.bmp	circle.bmp	circle.bmp
74.1351709366	1.9007492064999951	face	1.30527997017	1.0	0.8	71.1041009426	74.0352840424	76.0359201431	76.0518391132	77.0351669788	n/a	03F_FE_O.jpg	05F_FE_O.jpg	05F_FE_O.jpg
77.168954134	1.8654899597	face	1.03657507896	1.0	0.8	n/a	n/a	79.0344440937	79.0511219501	80.0340220928	n/a	FAZ_32.jpg	FAZ_32.jpg	FAX_45.jpg
80.1684670448	1.8646590710000053	face	0.971076965332	1.0	0.8	n/a	n/a	82.0331261158	82.0506179333	83.032845974	n/a	MAZ_128.jpg	MAZ_101.jpg	MAZ_101.jpg
83.1903381348	1.8429129122999937	face	1.2488758564	1.0	0.8	n/a	n/a	85.0332510471	85.0498080254	86.0321619511	n/a	11F_AN_O.jpg	11F_AN_O.jpg	12F_AN_O.jpg
86.1837639809	1.8484110832000056	face	0.876686811447	1.0	0.8	n/a	n/a	88.0321750641	88.0487270355	89.030673027	n/a	26M_FE_O.jpg	33M_FE_O.jpg	33M_FE_O.jpg
89.1604280472	1.8669719696000016	face	0.870805025101	1.0	0.8	n/a	n/a	91.0274000168	91.0437030792	92.0269329548	n/a	MFZ_132.jpg	MFZ_132.jpg	MFZ_120.jpg
95.0803120136	1.950573921200004	shape	0.820939064026	1.0	0.8	92.0996029377	95.0305299759	97.0308859348	97.0470731258	98.0297670364	n/a	circle.bmp	oval-vertical.bmp	oval-vertical.bmp
98.1472980976	1.8819458483999936	shape	0.935642004013	1.0	0.8	n/a	n/a	100.029243946	100.046421051	101.02877903	n/a	oval-horizontal.bmp	oval-horizontal.bmp	circle.bmp
101.132497072	1.8961389069999937	shape	0.633304834366	1.0	0.8	n/a	n/a	103.028635979	103.045320988	104.027595997	n/a	oval-horizontal.bmp	oval-vertical.bmp	oval-vertical.bmp
104.134350061	1.893568038999988	shape	0.781321048737	1.0	0.8	n/a	n/a	106.0279181	106.044250965	107.027229071	n/a	oval-horizontal.bmp	circle.bmp	circle.bmp
107.136872053	1.890464068	shape	0.591893911362	1.0	0.8	n/a	n/a	109.027336121	109.043703079	110.026345015	n/a	oval-horizontal.bmp	oval-horizontal.bmp	oval-vertical.bmp
110.127059937	1.8960480690000023	shape	0.754729986191	1.0	0.8	n/a	n/a	112.023108006	112.038483143	113.021862984	n/a	circle.bmp	circle.bmp	oval-vertical.bmp
116.09228301	1.9334659579999995	face	0.737720966339	1.0	0.8	113.103513956	116.025593996	118.025748968	118.040884018	119.024471998	n/a	FAZ_23.jpg	FAZ_23.jpg	FAX_43.jpg
119.176399946	1.8481221199999995	face	0.736166954041	1.0	0.8	n/a	n/a	121.024522066	121.041080952	122.023638964	n/a	26M_FE_O.jpg	26M_FE_O.jpg	27M_FE_O.BMP
122.14479804	1.879054070000009	face	0.6848320961	1.0	0.8	n/a	n/a	124.02385211	124.039910078	125.022845984	n/a	MFZ_50.jpg	MFZ_50.jpg	MFX_16.jpg
125.180145025	1.8423690799999968	face	1.26349401474	1.0	0.8	n/a	n/a	127.022514105	127.03917098	128.022141933	n/a	10F_AN_O.jpg	09F_AN_O.jpg	09F_AN_O.jpg
128.165131092	1.857261896000012	face	1.06109499931	1.0	0.8	n/a	n/a	130.022392988	130.038823128	131.021471977	n/a	38M_AN_O.BMP	39M_AN_O.jpg	39M_AN_O.jpg
131.156434059	1.8776850700000125	face	0.921060085297	1.0	0.8	n/a	n/a	133.034119129	133.050493002	134.033924103	n/a	FFZ_102.jpg	FFX_130.jpg	FFX_130.jpg
137.070174932	1.9504790310000144	shape	0.601731061935	1.0	0.8	134.114288092	137.020589113	139.020653963	139.036967039	140.019617081	n/a	oval-horizontal.bmp	oval-horizontal.bmp	oval-vertical.bmp
140.137921095	1.897812842999997	shape	0.818964958191	1.0	0.8	n/a	n/a	142.035733938	142.052516937	143.03531003	n/a	oval-horizontal.bmp	oval-vertical.bmp	oval-vertical.bmp
143.152810097	1.882298945999992	shape	0.620054960251	1.0	0.8	n/a	n/a	145.035109043	145.051762104	146.034402132	n/a	circle.bmp	circle.bmp	oval-vertical.bmp
146.141263008	1.893080949999984	shape	0.732066869736	1.0	0.8	n/a	n/a	148.034343958	148.050945044	149.033689022	n/a	circle.bmp	oval-vertical.bmp	oval-vertical.bmp
149.151569128	1.8822519779999995	shape	0.728432893753	1.0	0.8	n/a	n/a	151.033821106	151.050001144	152.032905102	n/a	oval-horizontal.bmp	circle.bmp	circle.bmp
152.145581961	1.883213042999984	shape	0.687002897263	1.0	0.8	n/a	n/a	154.028795004	154.04531312	155.029350042	n/a	oval-horizontal.bmp	oval-horizontal.bmp	circle.bmp
158.132447004	1.899225951000005	face	1.27092289925	1.0	0.8	155.109178066	158.030933142	160.031672955	160.04826808	161.031011105	n/a	20M_FE_O.jpg	21M_FE_O.jpg	21M_FE_O.jpg
161.199226141	1.831951857000007	face	0.968194961548	1.0	0.8	n/a	n/a	163.031177998	163.047791004	164.030040026	n/a	01F_AN_O.jpg	07F_AN_O.jpg	07F_AN_O.jpg
164.165116072	1.8652439110000216	face	1.43900203705	1.0	0.8	n/a	n/a	166.030359983	166.046693087	167.0292871	n/a	FFX_139.jpg	FFZ_102.jpg	FFZ_102.jpg
167.186776161	1.842691898999988	face	0.960296869278	1.0	0.8	n/a	n/a	169.02946806	169.045819044	170.028834105	n/a	23M_AN_O.jpg	23M_AN_O.jpg	22M_AN_O.jpg
170.155053139	1.8737738130000137	face	0.860057115555	1.0	0.8	n/a	n/a	172.028826952	172.045182943	173.028022051	n/a	MAZ_146.jpg	MAZ_146.jpg	MAX_233.jpg
173.19067812	1.8338258260000089	face	0.921651124954	1.0	0.8	n/a	n/a	175.024503946	175.041111946	176.024317026	n/a	15F_FE_O.jpg	15F_FE_O.jpg	16F_FE_O.jpg
179.077866077	1.9495480059999863	shape	0.970808029175	1.0	0.8	176.10306406	179.027064085	181.027414083	181.043329	182.026181936	n/a	oval-horizontal.bmp	oval-vertical.bmp	oval-vertical.bmp
182.144113064	1.88210201199999	shape	0.633758068085	1.0	0.8	n/a	n/a	184.026215076	184.042642117	185.025058985	n/a	circle.bmp	oval-vertical.bmp	oval-vertical.bmp
185.13092804	1.8942470550000223	shape	0.63182091713	1.0	0.8	n/a	n/a	187.025175095	187.041280031	188.024471045	n/a	oval-horizontal.bmp	oval-horizontal.bmp	oval-vertical.bmp
188.141762018	1.8819570539999968	shape	0.612365961075	1.0	0.8	n/a	n/a	190.023719072	190.041000128	191.023331165	n/a	oval-horizontal.bmp	oval-horizontal.bmp	circle.bmp
191.142023087	1.881923913999998	shape	0.794427871704	1.0	0.8	n/a	n/a	193.023947001	193.04025197	194.022670984	n/a	circle.bmp	circle.bmp	oval-vertical.bmp
194.14030695	1.8956131930000024	shape	0.804955005646	1.0	0.8	n/a	n/a	196.035920143	196.052953959	197.035709143	n/a	oval-horizontal.bmp	circle.bmp	circle.bmp
200.088658094	1.9332489969999929	face	0.853965044022	1.0	0.8	197.121690035	200.022072077	202.021907091	202.038280964	203.021325111	n/a	FFX_54.jpg	FFX_54.jpg	FAX_51.jpg
203.172321081	1.8487799170000017	face	1.08625602722	1.0	0.8	n/a	n/a	205.021100998	205.036559105	206.020039082	n/a	40M_FE_O.BMP	41M_FE_O.jpg	41M_FE_O.jpg
206.188574076	1.847992896999984	face	0.800598144531	1.0	0.8	n/a	n/a	208.036566973	208.053035975	209.035866022	n/a	29M_AN_O.jpg	29M_AN_O.jpg	28M_AN_O.jpg
209.169571161	1.8665637969999973	face	0.762667894363	1.0	0.8	n/a	n/a	211.036134958	211.052663088	212.035225153	n/a	FFZ_18.jpg	FFZ_29.jpg	FFZ_29.jpg
212.195827007	1.8332581520000133	face	1.1876308918	1.0	0.8	n/a	n/a	214.029085159	214.046401978	215.034355164	n/a	19F_AN_O.jpg	19F_AN_O.jpg	09F_AN_O.jpg
215.169806957	1.8615760810000097	face	0.90413403511	1.0	0.8	n/a	n/a	217.031383038	217.048192024	218.031355143	n/a	MFZ_132.jpg	MFZ_7.jpg	MFZ_7.jpg
221.084707022	1.949342011999988	shape	0.670948982239	1.0	0.8	218.118021011	221.033667088	223.034049034	223.050099134	224.032345057	n/a	circle.bmp	oval-vertical.bmp	oval-vertical.bmp
224.150213957	1.882397174999994	shape	0.655542135239	1.0	0.8	n/a	n/a	226.032611132	226.049185991	227.03153801	n/a	oval-horizontal.bmp	oval-horizontal.bmp	circle.bmp
227.149371147	1.882226943999996	shape	0.586588859558	1.0	0.8	n/a	n/a	229.031598091	229.04805398	230.030811071	n/a	oval-horizontal.bmp	oval-vertical.bmp	oval-vertical.bmp
230.148587942	1.8826780320000007	shape	0.704463005066	1.0	0.8	n/a	n/a	232.031265974	232.047502995	233.030102968	n/a	oval-horizontal.bmp	circle.bmp	circle.bmp
233.147660971	1.88275718700001	shape	0.577343940735	1.0	0.8	n/a	n/a	235.030418158	235.046658993	236.029413939	n/a	oval-horizontal.bmp	oval-horizontal.bmp	oval-vertical.bmp
236.146751165	1.879796981999988	shape	0.733910083771	1.0	0.8	n/a	n/a	238.026548147	238.042909145	239.026544094	n/a	circle.bmp	circle.bmp	oval-vertical.bmp
242.113216162	1.915490865000009	face	1.28673410416	1.0	0.8	239.114915133	242.028361082	244.028707027	244.044846058	245.027580023	n/a	20M_FE_O.jpg	21M_FE_O.jpg	21M_FE_O.jpg
245.19562602	1.8320639140000023	face	0.770500183105	1.0	0.8	n/a	n/a	247.027689934	247.044005156	248.026596069	n/a	07F_AN_O.jpg	07F_AN_O.jpg	01F_AN_O.jpg
248.161612988	1.8651750079999945	face	1.28702688217	1.0	0.8	n/a	n/a	250.026787996	250.043023109	251.025889158	n/a	FFZ_102.jpg	FFZ_102.jpg	FFX_139.jpg
251.193382025	1.832762955999982	face	1.1611738205	1.0	0.8	n/a	n/a	253.026144981	253.042382956	254.025032997	n/a	22M_AN_O.jpg	23M_AN_O.jpg	23M_AN_O.jpg
254.169636965	1.8555819989999804	face	0.810410022736	1.0	0.8	n/a	n/a	256.025218964	256.041594028	257.024367094	n/a	MAX_233.jpg	MAZ_146.jpg	MAZ_146.jpg
257.187508106	1.833528995999984	face	1.10468411446	1.0	0.8	n/a	n/a	259.021037102	259.037730932	260.021926165	n/a	15F_FE_O.jpg	15F_FE_O.jpg	16F_FE_O.jpg
263.075129986	1.948483944000032	shape	0.753583908081	1.0	0.8	260.119441032	263.023513079	265.02361393	265.039977074	266.022599936	n/a	oval-horizontal.bmp	oval-horizontal.bmp	oval-vertical.bmp
266.139222145	1.8822209839999573	shape	0.620759010315	1.0	0.8	n/a	n/a	268.021443129	268.038006067	269.021427155	n/a	oval-horizontal.bmp	oval-vertical.bmp	oval-vertical.bmp
269.139140129	1.882433891000005	shape	0.569870948792	1.0	0.8	n/a	n/a	271.02157402	271.037932158	272.021150112	n/a	circle.bmp	circle.bmp	oval-vertical.bmp
272.145457983	1.875481129000036	shape	0.678369998932	1.0	0.8	n/a	n/a	274.020939112	274.037338018	275.020030022	n/a	circle.bmp	oval-vertical.bmp	oval-vertical.bmp
275.147760153	1.8725309370000216	shape	1.04366397858	1.0	0.8	n/a	n/a	277.02029109	277.036201	278.03133297	n/a	oval-horizontal.bmp	circle.bmp	circle.bmp
278.149929047	1.882632016999992	shape	0.584907054901	1.0	0.8	n/a	n/a	280.032561064	280.049347162	281.035550117	n/a	oval-horizontal.bmp	oval-horizontal.bmp	circle.bmp
284.102865934	1.932345151999982	face	0.819873094559	1.0	0.8	281.128967047	284.034877062	286.035211086	286.051555157	287.033560038	n/a	FFZ_18.jpg	FAZ_129.jpg	FAZ_129.jpg
287.202470064	1.8313090799999827	face	1.03572010994	1.0	0.8	n/a	n/a	289.033779144	289.050398111	290.033432961	n/a	20M_FE_O.jpg	24M_FE_O.jpg	24M_FE_O.jpg
290.172664165	1.860895873000004	face	0.963340997696	1.0	0.8	n/a	n/a	292.033560038	292.049347162	293.032329082	n/a	FAZ_23.jpg	FAX_25.jpg	FAX_25.jpg
293.19114399	1.8414361470000244	face	0.883959054947	1.0	0.8	n/a	n/a	295.032580137	295.048774004	296.031615019	n/a	33M_FE_O.jpg	33M_FE_O.jpg	35M_FE_O.jpg
296.209805965	1.8221671590000028	face	0.842708826065	1.0	0.8	n/a	n/a	298.031973124	298.048166037	299.026895046	n/a	01F_AN_O.jpg	01F_AN_O.jpg	02F_AN_O.jpg
299.178591967	1.849465130999988	face	0.75409412384	1.0	0.8	n/a	n/a	301.028057098	301.044311047	302.030586958	n/a	MFZ_132.jpg	MFZ_132.jpg	MFZ_120.jpg
305.081115007	1.9492380620000065	shape	0.800293922424	1.0	0.8	302.125718117	305.02997303	307.030353069	307.046539068	308.029551983	n/a	oval-horizontal.bmp	oval-vertical.bmp	oval-vertical.bmp
308.149008036	1.879859924000016	shape	0.649714231491	1.0	0.8	n/a	n/a	310.02886796	310.04537797	311.028031111	n/a	circle.bmp	oval-vertical.bmp	oval-vertical.bmp
311.145215988	1.8830239769999928	shape	0.620948076248	1.0	0.8	n/a	n/a	313.028239965	313.044465065	314.027236938	n/a	oval-horizontal.bmp	oval-horizontal.bmp	oval-vertical.bmp
314.161839008	1.865605115999984	shape	0.577901124954	1.0	0.8	n/a	n/a	316.027444124	316.043772936	317.026541948	n/a	oval-horizontal.bmp	oval-horizontal.bmp	circle.bmp
317.155478001	1.8713200089999875	shape	0.659519195557	1.0	0.8	n/a	n/a	319.02679801	319.043091059	320.022128105	n/a	circle.bmp	circle.bmp	oval-vertical.bmp
320.156924009	1.8664319519999708	shape	0.767340898514	1.0	0.8	n/a	n/a	322.023355961	322.040004969	323.025656939	n/a	oval-horizontal.bmp	circle.bmp	circle.bmp
326.125951052	1.899158000999989	face	1.08710408211	1.0	0.8	323.122087955	326.024713039	328.025109053	328.041731119	329.024062157	n/a	17F_FE_O.jpg	18F_FE_O.jpg	18F_FE_O.jpg
329.208378077	1.8157899379999665	face	0.719915151596	1.0	0.8	n/a	n/a	331.024168015	331.040328026	332.023000956	n/a	42M_AN_O.jpg	43M_AN_O.jpg	43M_AN_O.jpg
332.189835072	1.8332989209999937	face	0.73814702034	1.0	0.8	n/a	n/a	334.023133993	334.039320946	335.022309065	n/a	31M_FE_O.jpg	31M_FE_O.jpg	32M_FE_O.jpg
335.164564133	1.858073950000005	face	0.778793096542	1.0	0.8	n/a	n/a	337.022638083	337.038915157	338.021538019	n/a	FAZ_212.jpg	FFZ_236.jpg	FFZ_236.jpg
338.188217163	1.8332278729999985	face	0.65219783783	1.0	0.8	n/a	n/a	340.021445036	340.037137032	341.033918142	n/a	06F_FE_O.jpg	06F_FE_O.jpg	08F_FE_O.jpg
341.185259104	1.8360888959999784	face	0.934032917023	1.0	0.8	n/a	n/a	343.021348	343.037804127	344.020486116	n/a	MAZ_128.jpg	MAZ_128.jpg	MAX_39.jpg
347.071076155	1.9499998089999624	shape	0.535893201828	1.0	0.8	344.117841959	347.019884109	349.021075964	349.036572933	350.034577131	n/a	circle.bmp	oval-vertical.bmp	oval-vertical.bmp
350.169783115	1.865833998000028	shape	0.770859003067	1.0	0.8	n/a	n/a	352.035617113	352.052036047	353.034590006	n/a	oval-horizontal.bmp	oval-horizontal.bmp	circle.bmp
353.157243967	1.87775898000001	shape	0.6114320755	1.0	0.8	n/a	n/a	355.035002947	355.05044198	356.033833027	n/a	oval-horizontal.bmp	oval-vertical.bmp	oval-vertical.bmp
356.168671131	1.865387917000021	shape	0.711220979691	1.0	0.8	n/a	n/a	358.034059048	358.050287962	359.032763004	n/a	oval-horizontal.bmp	circle.bmp	circle.bmp
359.161587	1.867640972000004	shape	0.567395925522	1.0	0.8	n/a	n/a	361.029227972	361.045576096	362.028460979	n/a	oval-horizontal.bmp	oval-horizontal.bmp	oval-vertical.bmp
362.163511038	1.86949300699996	shape	0.734354019165	1.0	0.8	n/a	n/a	364.033004045	364.049351931	365.03215003	n/a	circle.bmp	circle.bmp	oval-vertical.bmp
368.100163937	1.9316260809999903	face	0.717950105667	1.0	0.8	365.127025127	368.031778097	370.031790018	370.048428059	371.030598164	n/a	FFZ_18.jpg	FAZ_129.jpg	FAZ_129.jpg
371.198182106	1.8322658540000127	face	0.70284986496	1.0	0.8	n/a	n/a	373.03044796	373.047147989	374.029664993	n/a	20M_FE_O.jpg	24M_FE_O.jpg	24M_FE_O.jpg
374.18108201	1.8485801219999871	face	0.65031003952	1.0	0.8	n/a	n/a	376.029662132	376.046266079	377.029124022	n/a	FAZ_23.jpg	FAX_25.jpg	FAX_25.jpg
377.196236134	1.8325068949999943	face	0.761728048325	1.0	0.8	n/a	n/a	379.028743029	379.045272112	380.028095007	n/a	33M_FE_O.jpg	33M_FE_O.jpg	35M_FE_O.jpg
380.19591713	1.8278169629999752	face	0.676864862442	1.0	0.8	n/a	n/a	382.023734093	382.040482044	383.024070024	n/a	01F_AN_O.jpg	01F_AN_O.jpg	02F_AN_O.jpg
383.175186157	1.85264778200002	face	0.670973777771	1.0	0.8	n/a	n/a	385.027833939	385.044358969	386.027229071	394.424489975	MFZ_132.jpg	MFZ_132.jpg	MFZ_120.jpg
