onset	duration	trial_type	response_time	accuracy_binarized	tr_seconds	cueStartTime	cueEndTime	trialEndTime	fixStartTime	fixEndTime	runEndTime	stimLeft	stimTop	stimRight
11.0520880222	1.9680840969	shape	1.03645181656	1.0	0.8	8.01541900635	11.0040650368	13.0201721191	13.0247430801	14.0193150043	n/a	oval-horizontal.bmp	oval-horizontal.bmp	oval-vertical.bmp
14.1365110874	1.8830969333999992	shape	1.23637413979	1.0	0.8	n/a	n/a	16.0196080208	16.0234761238	17.0190720558	n/a	oval-horizontal.bmp	oval-vertical.bmp	oval-vertical.bmp
17.1170549393	1.9024651049999968	shape	1.39624094963	1.0	0.8	n/a	n/a	19.0195200443	19.0233440399	20.0187709332	n/a	circle.bmp	circle.bmp	oval-vertical.bmp
20.1173040867	1.9017939567000008	shape	0.813328027725	1.0	0.8	n/a	n/a	22.0190980434	22.0230491161	23.0177350044	n/a	circle.bmp	oval-vertical.bmp	oval-vertical.bmp
23.1177310944	1.9013819693999992	shape	0.993422985077	1.0	0.8	n/a	n/a	25.0191130638	25.022714138	26.0186340809	n/a	oval-horizontal.bmp	circle.bmp	circle.bmp
26.1167471409	1.9014098644000013	shape	0.961386203766	1.0	0.8	n/a	n/a	28.0181570053	28.0221450329	29.0174911022	n/a	oval-horizontal.bmp	oval-horizontal.bmp	circle.bmp
32.0800459385	1.9386210441999976	face	0.861306905746	1.0	0.8	29.0950081348	32.0172901154	34.0186669827	34.0239610672	35.0175790787	n/a	FAZ_23.jpg	FAZ_23.jpg	FAX_43.jpg
35.1585030556	1.8589739799	face	0.845148086548	1.0	0.8	n/a	n/a	37.0174770355	37.0213580132	38.0165381432	n/a	26M_FE_O.jpg	26M_FE_O.jpg	27M_FE_O.BMP
38.1450281143	1.8718798161000048	face	1.06082892418	1.0	0.8	n/a	n/a	40.0169079304	40.0212829113	41.0162920952	n/a	MFX_16.jpg	MFZ_50.jpg	MFZ_50.jpg
41.1681101322	1.8488218785000043	face	0.986052036285	1.0	0.8	n/a	n/a	43.0169320107	43.0205879211	44.0159459114	n/a	09F_AN_O.jpg	09F_AN_O.jpg	10F_AN_O.jpg
44.1513900757	1.8656609057999989	face	0.804495096207	1.0	0.8	n/a	n/a	46.0170509815	46.020704031	47.0155050755	n/a	38M_AN_O.BMP	39M_AN_O.jpg	39M_AN_O.jpg
47.1379730701	1.8781700134999968	face	0.871278047562	1.0	0.8	n/a	n/a	49.0161430836	49.0199620724	50.015141964	n/a	FFZ_102.jpg	FFX_130.jpg	FFX_130.jpg
53.0525970459	1.9627420902000023	shape	0.737201929092	1.0	0.8	50.0906460285	53.0150010586	55.0153391361	55.019837141	56.0145089626	n/a	oval-horizontal.bmp	oval-vertical.bmp	oval-vertical.bmp
56.115183115	1.8993928433	shape	0.644037008286	1.0	0.8	n/a	n/a	58.0145759583	58.0182070732	59.0142929554	n/a	circle.bmp	oval-vertical.bmp	oval-vertical.bmp
59.1152210236	1.899669885599998	shape	0.743547916412	1.0	0.8	n/a	n/a	61.0148909092	61.0186400414	62.0143060684	n/a	oval-horizontal.bmp	oval-horizontal.bmp	oval-vertical.bmp
62.1156051159	1.8980269432000008	shape	0.860094070435	1.0	0.8	n/a	n/a	64.0136320591	64.0169661045	65.0135939121	n/a	oval-horizontal.bmp	oval-horizontal.bmp	circle.bmp
65.1142990589	1.8995599746999967	shape	0.705939054489	1.0	0.8	n/a	n/a	67.0138590336	67.0175499916	68.0128450394	n/a	circle.bmp	circle.bmp	oval-vertical.bmp
68.112580061	1.9132208823999968	shape	1.0415968895	1.0	0.8	n/a	n/a	70.0258009434	70.02947402	71.0137710571	n/a	oval-horizontal.bmp	circle.bmp	circle.bmp
74.0935230255	1.919787883799998	face	0.758511066437	0.0	0.8	71.0914230347	74.0126569271	76.0133109093	76.0186700821	77.0122621059	n/a	03F_FE_O.jpg	05F_FE_O.jpg	05F_FE_O.jpg
77.1344721317	1.8783209324000008	face	0.953387022018	1.0	0.8	n/a	n/a	79.0127930641	79.0164859295	80.0117099285	n/a	FAZ_32.jpg	FAZ_32.jpg	FAX_45.jpg
80.1384251118	1.874156951899991	face	1.55766201019	1.0	0.8	n/a	n/a	82.0125820637	82.0161731243	83.0121121407	n/a	MAZ_128.jpg	MAZ_101.jpg	MAZ_101.jpg
83.1584320068	1.8542060852000048	face	0.873443841934	1.0	0.8	n/a	n/a	85.012638092	85.016274929	86.0117690563	n/a	11F_AN_O.jpg	11F_AN_O.jpg	12F_AN_O.jpg
86.1571340561	1.8551020621999896	face	0.906803131104	1.0	0.8	n/a	n/a	88.0122361183	88.0186209679	89.011286974	n/a	26M_FE_O.jpg	33M_FE_O.jpg	33M_FE_O.jpg
89.1323740482	1.8960430621999933	face	0.889204978943	1.0	0.8	n/a	n/a	91.0284171104	91.0320329666	92.0274450779	n/a	MFZ_132.jpg	MFZ_132.jpg	MFZ_120.jpg
95.0643129349	1.9631450175999987	shape	0.941113948822	1.0	0.8	92.1059911251	95.0269429684	97.0274579525	97.0321469307	98.0257711411	n/a	circle.bmp	oval-vertical.bmp	oval-vertical.bmp
98.1289110184	1.8977320196	shape	0.689229011536	1.0	0.8	n/a	n/a	100.026643038	100.030503988	101.026220083	n/a	oval-horizontal.bmp	oval-horizontal.bmp	circle.bmp
101.127577066	1.8989980230000043	shape	0.738040924072	1.0	0.8	n/a	n/a	103.026575089	103.03017211	104.024975061	n/a	oval-horizontal.bmp	oval-vertical.bmp	oval-vertical.bmp
104.128431082	1.8976240159999944	shape	0.771327972412	1.0	0.8	n/a	n/a	106.026055098	106.029650927	107.025764942	n/a	oval-horizontal.bmp	circle.bmp	circle.bmp
107.130789995	1.8953831200000053	shape	1.42119598389	1.0	0.8	n/a	n/a	109.026173115	109.029886007	110.025583029	n/a	oval-horizontal.bmp	oval-horizontal.bmp	oval-vertical.bmp
110.129153967	1.896373033000004	shape	0.854766845703	1.0	0.8	n/a	n/a	112.025527	112.029334068	113.024801016	n/a	circle.bmp	circle.bmp	oval-vertical.bmp
116.079643965	1.9456341260000016	face	0.721801996231	1.0	0.8	113.10564208	116.023865938	118.025278091	118.029829979	119.024533033	n/a	FAZ_23.jpg	FAZ_23.jpg	FAX_43.jpg
119.159454107	1.865700007000001	face	0.803118944168	1.0	0.8	n/a	n/a	121.025154114	121.028864145	122.024542093	n/a	26M_FE_O.jpg	26M_FE_O.jpg	27M_FE_O.BMP
122.146497011	1.87728405	face	0.719570875168	1.0	0.8	n/a	n/a	124.023781061	124.02801013	125.023112059	n/a	MFZ_50.jpg	MFZ_50.jpg	MFX_16.jpg
125.177595139	1.846285819999992	face	1.11918401718	1.0	0.8	n/a	n/a	127.023880959	127.027626991	128.022644043	n/a	10F_AN_O.jpg	09F_AN_O.jpg	09F_AN_O.jpg
128.159290075	1.86439704899999	face	0.771037101746	1.0	0.8	n/a	n/a	130.023687124	130.027282	131.022807121	n/a	38M_AN_O.BMP	39M_AN_O.jpg	39M_AN_O.jpg
131.147026062	1.876460074999983	face	1.18713712692	1.0	0.8	n/a	n/a	133.023486137	133.026896954	134.022401094	n/a	FFZ_102.jpg	FFX_130.jpg	FFX_130.jpg
137.05984211	1.9627749919999928	shape	1.08279705048	1.0	0.8	134.105432987	137.02288413	139.022617102	139.02740407	140.022119045	n/a	oval-horizontal.bmp	oval-horizontal.bmp	oval-vertical.bmp
140.125412941	1.8969671729999789	shape	0.786014080048	1.0	0.8	n/a	n/a	142.022380114	142.025979996	143.021700144	n/a	oval-horizontal.bmp	oval-vertical.bmp	oval-vertical.bmp
143.128371954	1.8937020300000145	shape	0.770072937012	1.0	0.8	n/a	n/a	145.022073984	145.025656939	146.021898985	n/a	circle.bmp	circle.bmp	oval-vertical.bmp
146.129382133	1.891321898000001	shape	0.669893026352	1.0	0.8	n/a	n/a	148.020704031	148.024600029	149.021039009	n/a	circle.bmp	oval-vertical.bmp	oval-vertical.bmp
149.12639308	1.894825935	shape	0.76987695694	1.0	0.8	n/a	n/a	151.021219015	151.024888992	152.020339966	n/a	oval-horizontal.bmp	circle.bmp	circle.bmp
152.127686024	1.8933949469999904	shape	0.836064100266	1.0	0.8	n/a	n/a	154.021080971	154.024768114	155.020156145	n/a	oval-horizontal.bmp	oval-horizontal.bmp	circle.bmp
158.107756138	1.9129819869999949	face	1.57007002831	1.0	0.8	155.106904984	158.019747972	160.020738125	160.02562809	161.019750118	n/a	20M_FE_O.jpg	21M_FE_O.jpg	21M_FE_O.jpg
161.175823927	1.8440070149999883	face	0.867865085602	1.0	0.8	n/a	n/a	163.019830942	163.02334094	164.019354105	n/a	01F_AN_O.jpg	07F_AN_O.jpg	07F_AN_O.jpg
164.147730112	1.8724119659999872	face	0.832422018051	1.0	0.8	n/a	n/a	166.020142078	166.023816109	167.019278049	n/a	FFX_139.jpg	FFZ_102.jpg	FFZ_102.jpg
167.179558039	1.8398549549999927	face	0.865073919296	1.0	0.8	n/a	n/a	169.019412994	169.022795916	170.018491983	n/a	23M_AN_O.jpg	23M_AN_O.jpg	22M_AN_O.jpg
170.147017002	1.872754096999984	face	0.749624967575	1.0	0.8	n/a	n/a	172.019771099	172.023736	173.018116951	n/a	MAZ_146.jpg	MAZ_146.jpg	MAX_233.jpg
173.173346996	1.845238924	face	1.12147784233	1.0	0.8	n/a	n/a	175.01858592	175.022196054	176.018603086	n/a	15F_FE_O.jpg	15F_FE_O.jpg	16F_FE_O.jpg
179.055370092	1.963178873000004	shape	0.934021949768	1.0	0.8	176.107283115	179.017699957	181.018548965	181.023019075	182.017358065	n/a	oval-horizontal.bmp	oval-vertical.bmp	oval-vertical.bmp
182.127656937	1.889816998999976	shape	0.698482990265	1.0	0.8	n/a	n/a	184.017473936	184.021580935	185.016864061	n/a	circle.bmp	oval-vertical.bmp	oval-vertical.bmp
185.127216101	1.8904218670000148	shape	0.797556877136	1.0	0.8	n/a	n/a	187.017637968	187.021296978	188.016544104	n/a	oval-horizontal.bmp	oval-horizontal.bmp	oval-vertical.bmp
188.130610943	1.8863730430000205	shape	0.665616989136	1.0	0.8	n/a	n/a	190.016983986	190.020903111	191.016236067	n/a	oval-horizontal.bmp	oval-horizontal.bmp	circle.bmp
191.125432014	1.8909449579999773	shape	0.737357854843	1.0	0.8	n/a	n/a	193.016376972	193.02038312	194.016394138	n/a	circle.bmp	circle.bmp	oval-vertical.bmp
194.127785921	1.8882801530000108	shape	0.93105506897	1.0	0.8	n/a	n/a	196.016066074	196.020085096	197.016274929	n/a	oval-horizontal.bmp	circle.bmp	circle.bmp
200.071159124	1.944878817000017	face	0.870625019073	1.0	0.8	197.103053093	200.014825106	202.016037941	202.020554066	203.014823914	n/a	FFX_54.jpg	FFX_54.jpg	FAX_51.jpg
203.16091609	1.8544788359999984	face	0.895334005356	1.0	0.8	n/a	n/a	205.015394926	205.019606113	206.014955044	n/a	40M_FE_O.BMP	41M_FE_O.jpg	41M_FE_O.jpg
206.173082113	1.842033863000012	face	0.721022129059	1.0	0.8	n/a	n/a	208.015115976	208.019107103	209.014298916	n/a	29M_AN_O.jpg	29M_AN_O.jpg	28M_AN_O.jpg
209.147193909	1.8674900529999832	face	0.844217061996	1.0	0.8	n/a	n/a	211.014683962	211.018363953	212.013387918	n/a	FFZ_18.jpg	FFZ_29.jpg	FFZ_29.jpg
212.173229933	1.8411400319999984	face	0.827211856842	1.0	0.8	n/a	n/a	214.014369965	214.018015146	215.013818026	n/a	19F_AN_O.jpg	19F_AN_O.jpg	09F_AN_O.jpg
215.143944025	1.870500088	face	0.826524972916	1.0	0.8	n/a	n/a	217.014444113	217.018057108	218.013342142	n/a	MFZ_132.jpg	MFZ_7.jpg	MFZ_7.jpg
221.051152945	1.962290048	shape	0.769474029541	1.0	0.8	218.102270126	221.012524128	223.013442993	223.01802206	224.012242079	n/a	circle.bmp	oval-vertical.bmp	oval-vertical.bmp
224.130423069	1.8932049269999995	shape	0.67227602005	1.0	0.8	n/a	n/a	226.023627996	226.027215004	227.023087978	n/a	oval-horizontal.bmp	oval-horizontal.bmp	circle.bmp
227.133930922	1.8782560820000072	shape	0.58652806282	1.0	0.8	n/a	n/a	229.012187004	229.015799999	230.011806011	n/a	oval-horizontal.bmp	oval-vertical.bmp	oval-vertical.bmp
230.128139973	1.894350051999993	shape	1.00358080864	1.0	0.8	n/a	n/a	232.022490025	232.026196957	233.022999048	n/a	oval-horizontal.bmp	circle.bmp	circle.bmp
233.137239933	1.8864860529999987	shape	0.985718011856	1.0	0.8	n/a	n/a	235.023725986	235.027467966	236.022514105	n/a	oval-horizontal.bmp	oval-horizontal.bmp	oval-vertical.bmp
236.137784004	1.8897819519999928	shape	0.703050136566	1.0	0.8	n/a	n/a	238.027565956	238.031152964	239.027482033	n/a	circle.bmp	circle.bmp	oval-vertical.bmp
242.108429909	1.9192061420000075	face	1.45707201958	1.0	0.8	239.120196104	242.027267933	244.027636051	244.03252697	245.026782036	n/a	20M_FE_O.jpg	21M_FE_O.jpg	21M_FE_O.jpg
245.183968067	1.843575001000005	face	0.836362838745	1.0	0.8	n/a	n/a	247.027543068	247.031085968	248.026298046	n/a	07F_AN_O.jpg	07F_AN_O.jpg	01F_AN_O.jpg
248.155467033	1.8711791039999923	face	0.724416017532	1.0	0.8	n/a	n/a	250.026646137	250.030245066	251.026299953	n/a	FFZ_102.jpg	FFZ_102.jpg	FFX_139.jpg
251.187645912	1.8390161990000136	face	1.17350792885	1.0	0.8	n/a	n/a	253.026662111	253.030158997	254.025835037	n/a	22M_AN_O.jpg	23M_AN_O.jpg	23M_AN_O.jpg
254.158991098	1.867331028000024	face	0.688879013062	1.0	0.8	n/a	n/a	256.026322126	256.03044796	257.025980949	n/a	MAX_233.jpg	MAZ_146.jpg	MAZ_146.jpg
257.18138814	1.8446068760000005	face	1.65034198761	1.0	0.8	n/a	n/a	259.025995016	259.029593945	260.024964094	n/a	15F_FE_O.jpg	15F_FE_O.jpg	16F_FE_O.jpg
263.062542915	1.9625620850000016	shape	0.822071790695	1.0	0.8	260.115356922	263.024974108	265.025105	265.029669046	266.024615049	n/a	oval-horizontal.bmp	oval-horizontal.bmp	oval-vertical.bmp
266.139310122	1.8851349349999964	shape	0.738327980042	1.0	0.8	n/a	n/a	268.024445057	268.028196096	269.024264097	n/a	oval-horizontal.bmp	oval-vertical.bmp	oval-vertical.bmp
269.138659954	1.886018992000004	shape	0.669679880142	1.0	0.8	n/a	n/a	271.024678946	271.028249025	272.024343967	n/a	circle.bmp	circle.bmp	oval-vertical.bmp
272.139037132	1.884840966000013	shape	0.770327091217	1.0	0.8	n/a	n/a	274.023878098	274.027667999	275.023384094	n/a	circle.bmp	oval-vertical.bmp	oval-vertical.bmp
275.139485121	1.8840940000000048	shape	0.904417037964	1.0	0.8	n/a	n/a	277.023579121	277.02720809	278.023092031	n/a	oval-horizontal.bmp	circle.bmp	circle.bmp
278.143261909	1.8791890150000088	shape	0.704205036163	1.0	0.8	n/a	n/a	280.022450924	280.026129961	281.022696018	n/a	oval-horizontal.bmp	oval-horizontal.bmp	circle.bmp
284.081969976	1.9412429340000017	face	0.636860132217	1.0	0.8	281.115744114	284.022072077	286.02321291	286.027740955	287.022103071	n/a	FFZ_18.jpg	FAZ_129.jpg	FAZ_129.jpg
287.185827017	1.8371379369999656	face	1.56994915009	1.0	0.8	n/a	n/a	289.022964954	289.02657795	290.022449017	n/a	20M_FE_O.jpg	24M_FE_O.jpg	24M_FE_O.jpg
290.156252146	1.866360902999986	face	0.76907491684	1.0	0.8	n/a	n/a	292.022613049	292.026238918	293.020910025	n/a	FAZ_23.jpg	FAX_25.jpg	FAX_25.jpg
293.180809975	1.840800999999999	face	0.702563047409	1.0	0.8	n/a	n/a	295.021610975	295.025186062	296.021564007	n/a	33M_FE_O.jpg	33M_FE_O.jpg	35M_FE_O.jpg
296.189094067	1.8325700760000243	face	0.885974884033	1.0	0.8	n/a	n/a	298.021664143	298.025092125	299.020910978	n/a	01F_AN_O.jpg	01F_AN_O.jpg	02F_AN_O.jpg
299.160619974	1.860728026000004	face	0.719424009323	1.0	0.8	n/a	n/a	301.021348	301.024990082	302.020349979	n/a	MFZ_132.jpg	MFZ_132.jpg	MFZ_120.jpg
305.057302952	1.9638590810000096	shape	1.2772769927955	0.0	0.8	302.117731094	305.02037096	307.021162033	307.026051044	308.018729925	n/a	oval-horizontal.bmp	oval-vertical.bmp	oval-vertical.bmp
308.136977911	1.883221149000008	shape	0.737332105637	1.0	0.8	n/a	n/a	310.02019906	310.024003029	311.019910097	n/a	circle.bmp	oval-vertical.bmp	oval-vertical.bmp
311.136667967	1.8828849789999824	shape	0.786935091019	1.0	0.8	n/a	n/a	313.019552946	313.023164034	314.019035101	n/a	oval-horizontal.bmp	oval-horizontal.bmp	oval-vertical.bmp
314.138597965	1.879913092000038	shape	0.720410823822	1.0	0.8	n/a	n/a	316.018511057	316.022166014	317.019370079	n/a	oval-horizontal.bmp	oval-horizontal.bmp	circle.bmp
317.137490988	1.881375073999948	shape	0.687080860138	1.0	0.8	n/a	n/a	319.018866062	319.022478104	320.018425941	n/a	circle.bmp	circle.bmp	oval-vertical.bmp
320.136507988	1.88221692999997	shape	0.900538921356	1.0	0.8	n/a	n/a	322.018724918	322.02248311	323.017707109	n/a	oval-horizontal.bmp	circle.bmp	circle.bmp
326.102361917	1.91624307699999	face	1.16998791695	1.0	0.8	323.114480019	326.018347979	328.018604994	328.023523092	329.017358065	n/a	17F_FE_O.jpg	18F_FE_O.jpg	18F_FE_O.jpg
329.179847956	1.8381581300000107	face	0.632786989212	1.0	0.8	n/a	n/a	331.018006086	331.021625996	332.017096043	n/a	42M_AN_O.jpg	43M_AN_O.jpg	43M_AN_O.jpg
332.178617954	1.839001178999979	face	0.898988008499	1.0	0.8	n/a	n/a	334.017619133	334.021325111	335.016859055	n/a	31M_FE_O.jpg	31M_FE_O.jpg	32M_FE_O.jpg
335.159487963	1.8583111759999724	face	0.834123134613	1.0	0.8	n/a	n/a	337.017799139	337.021320105	338.01640892	n/a	FAZ_212.jpg	FFZ_236.jpg	FFZ_236.jpg
338.181462049	1.8357300760000044	face	1.0702559948	1.0	0.8	n/a	n/a	340.017192125	340.021143913	341.016081095	n/a	06F_FE_O.jpg	06F_FE_O.jpg	08F_FE_O.jpg
341.151989937	1.864610195000012	face	0.953662872314	1.0	0.8	n/a	n/a	343.016600132	343.02026391	344.01623106	n/a	MAZ_128.jpg	MAZ_128.jpg	MAX_39.jpg
347.053628922	1.9625110620000328	shape	0.619901180267	1.0	0.8	344.115966082	347.016086102	349.016139984	349.020817995	350.015023947	n/a	circle.bmp	oval-vertical.bmp	oval-vertical.bmp
350.137041092	1.87879300100002	shape	0.67032289505	1.0	0.8	n/a	n/a	352.015834093	352.019665956	353.014647007	n/a	oval-horizontal.bmp	oval-horizontal.bmp	circle.bmp
353.138593912	1.876484156000004	shape	0.669585943222	1.0	0.8	n/a	n/a	355.015078068	355.018863916	356.014774084	n/a	oval-horizontal.bmp	oval-vertical.bmp	oval-vertical.bmp
356.139380932	1.8750071520000235	shape	0.720153093338	1.0	0.8	n/a	n/a	358.014388084	358.018144131	359.014389992	n/a	oval-horizontal.bmp	circle.bmp	circle.bmp
359.140290022	1.8741350170000144	shape	0.89631485939	1.0	0.8	n/a	n/a	361.014425039	361.018172026	362.013705015	n/a	oval-horizontal.bmp	oval-horizontal.bmp	oval-vertical.bmp
362.139509916	1.8743932250000053	shape	1.07027792931	1.0	0.8	n/a	n/a	364.013903141	364.017606974	365.013593912	n/a	circle.bmp	circle.bmp	oval-vertical.bmp
368.068861008	1.944869041000004	face	0.703280210495	1.0	0.8	365.113599062	368.012691021	370.013730049	370.018263102	371.013180017	n/a	FFZ_18.jpg	FAZ_129.jpg	FAZ_129.jpg
371.180665016	1.832515001000047	face	1.08646512032	1.0	0.8	n/a	n/a	373.013180017	373.016834021	374.01248908	n/a	20M_FE_O.jpg	24M_FE_O.jpg	24M_FE_O.jpg
374.153455973	1.8592040539999743	face	0.720056056976	1.0	0.8	n/a	n/a	376.012660027	376.01663208	377.012053967	n/a	FAZ_23.jpg	FAX_25.jpg	FAX_25.jpg
377.174880981	1.8378469950000067	face	0.694401025772	1.0	0.8	n/a	n/a	379.012727976	379.016014099	380.01194191	n/a	33M_FE_O.jpg	33M_FE_O.jpg	35M_FE_O.jpg
380.180483103	1.8318979740000143	face	0.819208145142	1.0	0.8	n/a	n/a	382.012381077	382.015983105	383.011811018	n/a	01F_AN_O.jpg	01F_AN_O.jpg	02F_AN_O.jpg
383.154977083	1.873479842999984	face	0.776238918304	1.0	0.8	n/a	n/a	385.028456926	385.032203913	386.027637005	394.427178144	MFZ_132.jpg	MFZ_132.jpg	MFZ_120.jpg
