onset	duration	trial_type	response_time	accuracy_binarized	tr_seconds	cueStartTime	cueEndTime	trialEndTime	fixStartTime	fixEndTime	runEndTime	stimLeft	stimTop	stimRight
11.0907099247	1.948651075399999	shape	1.15236592293	1.0	0.8	8.0334649086	11.0268919468	13.0393610001	13.0556368828	14.0378098488	n/a	oval-horizontal.bmp	oval-horizontal.bmp	oval-vertical.bmp
14.1561238766	1.8728361128999984	shape	1.05285310745	1.0	0.8	n/a	n/a	16.0289599895	16.0371809006	17.0371830463	n/a	oval-horizontal.bmp	oval-vertical.bmp	oval-vertical.bmp
17.1377658844	1.8993489741999987	shape	0.742588996887	1.0	0.8	n/a	n/a	19.0371148586	19.0535058975	20.0362989902	n/a	circle.bmp	circle.bmp	oval-vertical.bmp
20.1366629601	1.8994600772000003	shape	0.643234968185	1.0	0.8	n/a	n/a	22.0361230373	22.0528509617	23.0315859318	n/a	circle.bmp	oval-vertical.bmp	oval-vertical.bmp
23.1329698563	1.902611017199998	shape	0.753504991531	1.0	0.8	n/a	n/a	25.0355808735	25.0513119698	26.0340619087	n/a	oval-horizontal.bmp	circle.bmp	circle.bmp
26.1527278423	1.8817141056000004	shape	0.73501086235	1.0	0.8	n/a	n/a	28.0344419479	28.0512518883	29.0343160629	n/a	oval-horizontal.bmp	oval-horizontal.bmp	circle.bmp
32.1005840302	1.932375907800001	face	0.919697999954	1.0	0.8	29.1101338863	32.0330109596	34.032959938	34.0497710705	35.0320959091	n/a	FAZ_23.jpg	FAZ_23.jpg	FAX_43.jpg
35.1826570034	1.8492438792999977	face	0.886270999908	1.0	0.8	n/a	n/a	37.0319008827	37.0483129025	38.0311279297	n/a	26M_FE_O.jpg	26M_FE_O.jpg	27M_FE_O.BMP
38.1571879387	1.8737330437	face	0.662039041519	1.0	0.8	n/a	n/a	40.0309209824	40.0475258827	41.0279529095	n/a	MFX_16.jpg	MFZ_50.jpg	MFZ_50.jpg
41.2417469025	1.7885160446000017	face	0.658677101135	1.0	0.8	n/a	n/a	43.0302629471	43.046391964	44.0261499882	n/a	09F_AN_O.jpg	09F_AN_O.jpg	10F_AN_O.jpg
44.1773979664	1.8509809971000024	face	0.653203010559	1.0	0.8	n/a	n/a	46.0283789635	46.046391964	47.0286300182	n/a	38M_AN_O.BMP	39M_AN_O.jpg	39M_AN_O.jpg
47.1617338657	1.867016077099997	face	0.687458992004	1.0	0.8	n/a	n/a	49.0287499428	49.0454609394	50.0282690525	n/a	FFZ_102.jpg	FFX_130.jpg	FFX_130.jpg
53.0792589188	1.947713136600001	shape	0.469056129456	1.0	0.8	50.0993218422	53.0268440247	55.0269720554	55.043118	56.0258929729	n/a	oval-horizontal.bmp	oval-vertical.bmp	oval-vertical.bmp
56.1345598698	1.907927036300002	shape	0.597500085831	1.0	0.8	n/a	n/a	58.0424869061	58.058013916	59.0417039394	n/a	circle.bmp	oval-vertical.bmp	oval-vertical.bmp
59.1516258717	1.890043020200004	shape	0.846986055374	1.0	0.8	n/a	n/a	61.0416688919	61.0579309464	62.0406298637	n/a	oval-horizontal.bmp	oval-horizontal.bmp	oval-vertical.bmp
62.1529529095	1.8843929766999992	shape	0.804969072342	1.0	0.8	n/a	n/a	64.0373458862	64.053071022	65.0364010334	n/a	oval-horizontal.bmp	oval-horizontal.bmp	circle.bmp
65.1405889988	1.899431943899998	shape	0.722899913788	1.0	0.8	n/a	n/a	67.0400209427	67.0566949844	68.0396008492	n/a	circle.bmp	circle.bmp	oval-vertical.bmp
68.1575469971	1.882262945099996	shape	0.550883054733	1.0	0.8	n/a	n/a	70.0398099422	70.0560019016	71.038449049	n/a	oval-horizontal.bmp	circle.bmp	circle.bmp
74.1258740425	1.9113459586999968	face	0.948809862137	0.0	0.8	71.1103329659	74.0375430584	76.0372200012	76.0539078712	77.0359778404	n/a	03F_FE_O.jpg	05F_FE_O.jpg	05F_FE_O.jpg
77.1598758698	1.8766269683000016	face	0.795960903168	1.0	0.8	n/a	n/a	79.0365028381	79.052770853	80.0356810093	n/a	FAZ_32.jpg	FAZ_32.jpg	FAX_45.jpg
80.1624999046	1.872843980799999	face	1.26948094368	1.0	0.8	n/a	n/a	82.0353438854	82.0520670414	83.034913063	n/a	MAZ_128.jpg	MAZ_101.jpg	MAZ_101.jpg
83.1851689816	1.845324993099993	face	0.954877853394	1.0	0.8	n/a	n/a	85.0304939747	85.0474469662	86.0312428474	n/a	11F_AN_O.jpg	11F_AN_O.jpg	12F_AN_O.jpg
86.1815319061	1.852739095699988	face	0.738258123398	1.0	0.8	n/a	n/a	88.0342710018	88.0498969555	89.0334119797	n/a	26M_FE_O.jpg	33M_FE_O.jpg	33M_FE_O.jpg
89.1670708656	1.866298198700008	face	0.917729854584	1.0	0.8	n/a	n/a	91.0333690643	91.0502889156	92.0325958729	n/a	MFZ_132.jpg	MFZ_132.jpg	MFZ_120.jpg
95.0833768845	1.948052167900002	shape	0.603065013885	1.0	0.8	92.1109068394	95.0314650536	97.0314290524	97.0478019714	98.0305650234	n/a	circle.bmp	oval-vertical.bmp	oval-vertical.bmp
98.1383109093	1.8919410707	shape	0.713549137115	1.0	0.8	n/a	n/a	100.03025198	100.046387911	101.029481888	n/a	oval-horizontal.bmp	oval-horizontal.bmp	circle.bmp
101.139647961	1.8898749350000088	shape	0.643893957138	1.0	0.8	n/a	n/a	103.029522896	103.046090841	104.02868104	n/a	oval-horizontal.bmp	oval-vertical.bmp	oval-vertical.bmp
104.141594887	1.899743080000008	shape	0.521116018295	1.0	0.8	n/a	n/a	106.041337967	106.05792594	107.041049957	n/a	oval-horizontal.bmp	circle.bmp	circle.bmp
107.159826994	1.8683118820000004	shape	0.60283780098	1.0	0.8	n/a	n/a	109.028138876	109.044632912	110.026967049	n/a	oval-horizontal.bmp	oval-horizontal.bmp	oval-vertical.bmp
110.144743919	1.8825271129999948	shape	0.651551961899	1.0	0.8	n/a	n/a	112.027271032	112.043851852	113.026443958	n/a	circle.bmp	circle.bmp	oval-vertical.bmp
116.110197067	1.9321339130000013	face	0.653030872345	1.0	0.8	113.101063967	116.042212963	118.04233098	118.058419943	119.040977001	n/a	FAZ_23.jpg	FAZ_23.jpg	FAX_43.jpg
119.183779955	1.8571219439999995	face	0.697466135025	1.0	0.8	n/a	n/a	121.040901899	121.056475878	122.040118933	n/a	26M_FE_O.jpg	26M_FE_O.jpg	27M_FE_O.BMP
122.174187899	1.865911006999994	face	0.611096858978	1.0	0.8	n/a	n/a	124.040098906	124.056479931	125.034091949	n/a	MFZ_50.jpg	MFZ_50.jpg	MFX_16.jpg
125.18924284	1.8467512129999903	face	0.667515039444	1.0	0.8	n/a	n/a	127.035994053	127.052935839	128.038429976	n/a	10F_AN_O.jpg	09F_AN_O.jpg	09F_AN_O.jpg
128.187344074	1.8511209489999767	face	0.506086111069	1.0	0.8	n/a	n/a	130.038465023	130.054947853	131.038094997	n/a	38M_AN_O.BMP	39M_AN_O.jpg	39M_AN_O.jpg
131.172118902	1.866027117000016	face	0.871324062347	1.0	0.8	n/a	n/a	133.038146019	133.054883003	134.037107944	n/a	FFZ_102.jpg	FFX_130.jpg	FFX_130.jpg
137.088304996	1.947565078999986	shape	0.78431892395	1.0	0.8	134.116220951	137.035727024	139.035870075	139.052056074	140.03489399	n/a	oval-horizontal.bmp	oval-horizontal.bmp	oval-vertical.bmp
140.151655912	1.8833060270000035	shape	0.513072967529	1.0	0.8	n/a	n/a	142.034961939	142.05121088	143.034157038	n/a	oval-horizontal.bmp	oval-vertical.bmp	oval-vertical.bmp
143.144412041	1.889760970999987	shape	0.677673816681	1.0	0.8	n/a	n/a	145.034173012	145.049740076	146.033143997	n/a	circle.bmp	circle.bmp	oval-vertical.bmp
146.14674902	1.883065939000005	shape	0.520539999008	1.0	0.8	n/a	n/a	148.029814959	148.046103001	149.032552004	n/a	circle.bmp	oval-vertical.bmp	oval-vertical.bmp
149.148544073	1.8841660020000008	shape	0.705858945847	1.0	0.8	n/a	n/a	151.032710075	151.049171925	152.031903028	n/a	oval-horizontal.bmp	circle.bmp	circle.bmp
152.149747849	1.882225035999994	shape	0.654555082321	1.0	0.8	n/a	n/a	154.031972885	154.048572063	155.031095028	n/a	oval-horizontal.bmp	oval-horizontal.bmp	circle.bmp
158.13123107	1.898792981999975	face	1.13781309128	1.0	0.8	155.115820885	158.02976799	160.030024052	160.04616785	161.028918028	n/a	20M_FE_O.jpg	21M_FE_O.jpg	21M_FE_O.jpg
161.196791887	1.8316171170000075	face	0.753571987152	1.0	0.8	n/a	n/a	163.028409004	163.045150042	164.028109074	n/a	01F_AN_O.jpg	07F_AN_O.jpg	07F_AN_O.jpg
164.161458015	1.8663949970000149	face	0.944418907166	1.0	0.8	n/a	n/a	166.027853012	166.044487953	167.039690018	n/a	FFX_139.jpg	FFZ_102.jpg	FFZ_102.jpg
167.210161924	1.8309400089999883	face	0.871507883072	1.0	0.8	n/a	n/a	169.041101933	169.057271957	170.026437998	n/a	23M_AN_O.jpg	23M_AN_O.jpg	22M_AN_O.jpg
170.160884857	1.8656260969999887	face	0.70655798912	1.0	0.8	n/a	n/a	172.026510954	172.042167902	173.026543856	n/a	MAZ_146.jpg	MAZ_146.jpg	MAX_233.jpg
173.193902016	1.8484499449999987	face	0.903555870056	1.0	0.8	n/a	n/a	175.042351961	175.05894804	176.041789055	n/a	15F_FE_O.jpg	15F_FE_O.jpg	16F_FE_O.jpg
179.091531038	1.948689938000001	shape	0.554123163223	1.0	0.8	176.130110979	179.040485859	181.040220976	181.056727886	182.039346933	n/a	oval-horizontal.bmp	oval-vertical.bmp	oval-vertical.bmp
182.156388044	1.883180856999985	shape	0.579069137573	1.0	0.8	n/a	n/a	184.039568901	184.055104017	185.038595915	n/a	circle.bmp	oval-vertical.bmp	oval-vertical.bmp
185.155664921	1.88289499299998	shape	0.794105052948	1.0	0.8	n/a	n/a	187.038559914	187.054766893	188.033544064	n/a	oval-horizontal.bmp	oval-horizontal.bmp	oval-vertical.bmp
188.151190042	1.883821011000009	shape	0.652391910553	1.0	0.8	n/a	n/a	190.035011053	190.051337004	191.037028074	n/a	oval-horizontal.bmp	oval-horizontal.bmp	circle.bmp
191.15210104	1.884584904000008	shape	0.772382974625	1.0	0.8	n/a	n/a	193.036685944	193.053727865	194.036628008	n/a	circle.bmp	circle.bmp	oval-vertical.bmp
194.17115593	1.865283011999992	shape	0.520288944244	1.0	0.8	n/a	n/a	196.036438942	196.053139925	197.035073996	n/a	oval-horizontal.bmp	circle.bmp	circle.bmp
200.10295105	1.931413888999998	face	0.75409412384	1.0	0.8	197.12031889	200.034168959	202.034364939	202.050272942	203.033307076	n/a	FFX_54.jpg	FFX_54.jpg	FAX_51.jpg
203.185281038	1.8480598929999985	face	0.63667011261	1.0	0.8	n/a	n/a	205.033340931	205.04983902	206.032526016	n/a	40M_FE_O.BMP	41M_FE_O.jpg	41M_FE_O.jpg
206.1938169	1.838509082999991	face	0.72550201416	1.0	0.8	n/a	n/a	208.032325983	208.049020052	209.031589985	n/a	29M_AN_O.jpg	29M_AN_O.jpg	28M_AN_O.jpg
209.165399075	1.863751887999996	face	0.603312969208	1.0	0.8	n/a	n/a	211.029150963	211.045521021	212.030745983	n/a	FFZ_18.jpg	FFZ_29.jpg	FFZ_29.jpg
212.197293997	1.834121941999996	face	0.755156993866	1.0	0.8	n/a	n/a	214.031415939	214.048037052	215.030508041	n/a	19F_AN_O.jpg	19F_AN_O.jpg	09F_AN_O.jpg
215.164025068	1.8661789900000088	face	0.704246044159	1.0	0.8	n/a	n/a	217.030204058	217.046763897	218.029443979	n/a	MFZ_132.jpg	MFZ_7.jpg	MFZ_7.jpg
221.08020997	1.948158025999988	shape	0.669453144073	1.0	0.8	218.120267868	221.028152943	223.028367996	223.044414043	224.027330875	n/a	circle.bmp	oval-vertical.bmp	oval-vertical.bmp
224.143779993	1.882905959999988	shape	0.746559143066	1.0	0.8	n/a	n/a	226.026685953	226.043549061	227.026365042	n/a	oval-horizontal.bmp	oval-horizontal.bmp	circle.bmp
227.14289999	1.900486946000001	shape	0.638411998749	1.0	0.8	n/a	n/a	229.043386936	229.059596062	230.037818909	n/a	oval-horizontal.bmp	oval-vertical.bmp	oval-vertical.bmp
230.155910969	1.885641098000008	shape	0.469893932343	1.0	0.8	n/a	n/a	232.041552067	232.058979034	233.041776896	n/a	oval-horizontal.bmp	circle.bmp	circle.bmp
233.157604933	1.884047985000024	shape	0.822179794312	1.0	0.8	n/a	n/a	235.041652918	235.05836606	236.040955067	n/a	oval-horizontal.bmp	oval-horizontal.bmp	oval-vertical.bmp
236.158145905	1.882939100000016	shape	0.603235960007	1.0	0.8	n/a	n/a	238.041085005	238.057687044	239.040071964	n/a	circle.bmp	circle.bmp	oval-vertical.bmp
242.12302804	1.9160969259999945	face	1.06823515892	1.0	0.8	239.127821922	242.03873992	244.039124966	244.055252075	245.038034916	n/a	20M_FE_O.jpg	21M_FE_O.jpg	21M_FE_O.jpg
245.205842018	1.8320920470000035	face	0.835618019104	1.0	0.8	n/a	n/a	247.037934065	247.054650068	248.037183046	n/a	07F_AN_O.jpg	07F_AN_O.jpg	01F_AN_O.jpg
248.182277918	1.8542311189999907	face	1.00970506668	1.0	0.8	n/a	n/a	250.036509037	250.053353071	251.032043934	n/a	FFZ_102.jpg	FFZ_102.jpg	FFX_139.jpg
251.202497959	1.833822012000013	face	0.687569856644	1.0	0.8	n/a	n/a	253.036319971	253.05311203	254.035742998	n/a	22M_AN_O.jpg	23M_AN_O.jpg	23M_AN_O.jpg
254.185589075	1.8503799439999968	face	0.65500998497	1.0	0.8	n/a	n/a	256.035969019	256.051651955	257.035085917	n/a	MAX_233.jpg	MAZ_146.jpg	MAZ_146.jpg
257.203320026	1.8314738280000145	face	0.818930149078	1.0	0.8	n/a	n/a	259.034793854	259.051063061	260.033324003	n/a	15F_FE_O.jpg	15F_FE_O.jpg	16F_FE_O.jpg
263.086550951	1.9462590219999925	shape	0.753477811813	1.0	0.8	260.120959997	263.032655954	265.032809973	265.049217939	266.031789064	n/a	oval-horizontal.bmp	oval-horizontal.bmp	oval-vertical.bmp
266.157300949	1.874380111999983	shape	0.561656951904	1.0	0.8	n/a	n/a	268.031681061	268.048440933	269.031015873	n/a	oval-horizontal.bmp	oval-vertical.bmp	oval-vertical.bmp
269.158464909	1.8685531610000223	shape	0.551006793976	1.0	0.8	n/a	n/a	271.02701807	271.042510033	272.026180029	n/a	circle.bmp	circle.bmp	oval-vertical.bmp
272.161196947	1.8690669540000044	shape	0.517125844955	1.0	0.8	n/a	n/a	274.030263901	274.046618938	275.029623985	n/a	circle.bmp	oval-vertical.bmp	oval-vertical.bmp
275.162521839	1.867601155999978	shape	0.5376329422	1.0	0.8	n/a	n/a	277.030122995	277.046370029	278.028630018	n/a	oval-horizontal.bmp	circle.bmp	circle.bmp
278.163089991	1.865695953	shape	0.551762104034	1.0	0.8	n/a	n/a	280.028785944	280.045032024	281.027822971	n/a	oval-horizontal.bmp	oval-horizontal.bmp	circle.bmp
284.093948841	1.9328441620000376	face	0.720734119415	1.0	0.8	281.120164871	284.02660203	286.026793003	286.043079853	287.042392969	n/a	FFZ_18.jpg	FAZ_129.jpg	FAZ_129.jpg
287.209385872	1.833618164000029	face	0.977600097656	1.0	0.8	n/a	n/a	289.043004036	289.058845997	290.041545868	n/a	20M_FE_O.jpg	24M_FE_O.jpg	24M_FE_O.jpg
290.186987877	1.8546690940000303	face	0.642552852631	1.0	0.8	n/a	n/a	292.041656971	292.057971954	293.03599596	n/a	FAZ_23.jpg	FAX_25.jpg	FAX_25.jpg
293.204233885	1.836771010999996	face	0.700531005859	1.0	0.8	n/a	n/a	295.041004896	295.057415962	296.040148973	n/a	33M_FE_O.jpg	33M_FE_O.jpg	35M_FE_O.jpg
296.205777884	1.8344311710000056	face	0.603903055191	1.0	0.8	n/a	n/a	298.040209055	298.05717206	299.039588928	n/a	01F_AN_O.jpg	01F_AN_O.jpg	02F_AN_O.jpg
299.191523075	1.8479897979999576	face	0.71839594841	1.0	0.8	n/a	n/a	301.039512873	301.056118011	302.03814292	n/a	MFZ_132.jpg	MFZ_132.jpg	MFZ_120.jpg
305.08890295	1.9483981140000424	shape	0.600440979004	1.0	0.8	302.131042957	305.03687191	307.037301064	307.053595066	308.036351919	n/a	oval-horizontal.bmp	oval-vertical.bmp	oval-vertical.bmp
308.179641008	1.856396914000016	shape	0.646147966385	1.0	0.8	n/a	n/a	310.036037922	310.052929878	311.035600901	n/a	circle.bmp	oval-vertical.bmp	oval-vertical.bmp
311.163991928	1.8665480610000031	shape	0.770594120026	1.0	0.8	n/a	n/a	313.030539989	313.047185898	314.031023979	n/a	oval-horizontal.bmp	oval-horizontal.bmp	oval-vertical.bmp
314.165735006	1.869206906000045	shape	0.573800086975	1.0	0.8	n/a	n/a	316.034941912	316.051765919	317.034283876	n/a	oval-horizontal.bmp	oval-horizontal.bmp	circle.bmp
317.167706966	1.8666288860000009	shape	0.5715239048	1.0	0.8	n/a	n/a	319.034335852	319.051092863	320.033342838	n/a	circle.bmp	circle.bmp	oval-vertical.bmp
320.167880058	1.8656258590000327	shape	0.565641880035	1.0	0.8	n/a	n/a	322.033505917	322.049700022	323.031441927	n/a	oval-horizontal.bmp	circle.bmp	circle.bmp
326.121672869	1.909147023999992	face	1.07899308205	1.0	0.8	323.125309944	326.031431913	328.030819893	328.046550989	329.030421972	n/a	17F_FE_O.jpg	18F_FE_O.jpg	18F_FE_O.jpg
329.197844982	1.832331896000028	face	0.56081700325	1.0	0.8	n/a	n/a	331.030176878	331.046649933	332.029306889	n/a	42M_AN_O.jpg	43M_AN_O.jpg	43M_AN_O.jpg
332.208893061	1.8327448359999607	face	0.734683990479	1.0	0.8	n/a	n/a	334.041637897	334.058460951	335.041702032	n/a	31M_FE_O.jpg	31M_FE_O.jpg	32M_FE_O.jpg
335.191980839	1.8368301390000283	face	0.567772865295	1.0	0.8	n/a	n/a	337.028810978	337.045315027	338.028281927	n/a	FAZ_212.jpg	FFZ_236.jpg	FFZ_236.jpg
338.211452007	1.8169059759999868	face	0.655377864838	1.0	0.8	n/a	n/a	340.028357983	340.044599056	341.027132988	n/a	06F_FE_O.jpg	06F_FE_O.jpg	08F_FE_O.jpg
341.24502492	1.7821879379999928	face	0.635343074799	1.0	0.8	n/a	n/a	343.027212858	343.043299913	344.026149988	n/a	MAZ_128.jpg	MAZ_128.jpg	MAX_39.jpg
347.094037056	1.9478569030000017	shape	0.55095076561	1.0	0.8	344.121664047	347.041554928	349.041893959	349.058187008	350.04091692	n/a	circle.bmp	oval-vertical.bmp	oval-vertical.bmp
350.17430687	1.866719006999972	shape	0.528201818466	1.0	0.8	n/a	n/a	352.041025877	352.057466984	353.040004969	n/a	oval-horizontal.bmp	oval-horizontal.bmp	circle.bmp
353.168113947	1.8676819799999864	shape	0.488210916519	1.0	0.8	n/a	n/a	355.035795927	355.052583933	356.036493063	n/a	oval-horizontal.bmp	oval-vertical.bmp	oval-vertical.bmp
356.170523882	1.8689839840000104	shape	0.704524993896	1.0	0.8	n/a	n/a	358.039507866	358.055722952	359.038872957	n/a	oval-horizontal.bmp	circle.bmp	circle.bmp
359.172409058	1.865678786999979	shape	0.720366001129	1.0	0.8	n/a	n/a	361.038087845	361.055101871	362.037739992	n/a	oval-horizontal.bmp	oval-horizontal.bmp	oval-vertical.bmp
362.172574043	1.865244866000012	shape	0.83491396904	1.0	0.8	n/a	n/a	364.037818909	364.054184914	365.036881924	n/a	circle.bmp	circle.bmp	oval-vertical.bmp
368.103322029	1.9325280189999603	face	0.669723033905	1.0	0.8	365.132943869	368.035744905	370.035850048	370.05192399	371.034880877	n/a	FFZ_18.jpg	FAZ_129.jpg	FAZ_129.jpg
371.202131987	1.83266687400004	face	0.594228029251	0.0	0.8	n/a	n/a	373.034798861	373.051137924	374.028552055	n/a	20M_FE_O.jpg	24M_FE_O.jpg	24M_FE_O.jpg
374.179535866	1.8512980940000148	face	0.636721134186	1.0	0.8	n/a	n/a	376.03083396	376.046722889	377.03035593	n/a	FAZ_23.jpg	FAX_25.jpg	FAX_25.jpg
377.20024991	1.833081006999976	face	0.705812931061	1.0	0.8	n/a	n/a	379.033330917	379.050014973	380.032706976	n/a	33M_FE_O.jpg	33M_FE_O.jpg	35M_FE_O.jpg
380.217092991	1.8157749169999988	face	0.703947067261	1.0	0.8	n/a	n/a	382.032867908	382.04834199	383.031938076	n/a	01F_AN_O.jpg	01F_AN_O.jpg	02F_AN_O.jpg
383.181154013	1.8502988809999577	face	0.820840120316	1.0	0.8	n/a	n/a	385.031452894	385.04787302	386.029676914	394.428128004	MFZ_132.jpg	MFZ_132.jpg	MFZ_120.jpg
