onset	duration	trial_type	response_time	accuracy_binarized	tr_seconds	cueStartTime	cueEndTime	trialEndTime	fixStartTime	fixEndTime	runEndTime	stimLeft	stimTop	stimRight
11.0849611759	1.950295925199999	shape	1.10261106491	1.0	0.8	8.0318069458	11.0222780704	13.0352571011	13.0521280766	14.0349669456	n/a	oval-horizontal.bmp	oval-horizontal.bmp	oval-vertical.bmp
14.1688981056	1.8683390618000004	shape	1.03765797615	0.0	0.8	n/a	n/a	16.0372371674	16.0541200638	17.0373909473	n/a	oval-horizontal.bmp	oval-vertical.bmp	oval-vertical.bmp
17.1537120342	1.8831429482	shape	1.06941890717	1.0	0.8	n/a	n/a	19.0368549824	19.0524401665	20.0355830193	n/a	circle.bmp	circle.bmp	oval-vertical.bmp
20.1534380913	1.8824849129000008	shape	0.785561084747	1.0	0.8	n/a	n/a	22.0359230042	22.0510210991	23.0344331264	n/a	circle.bmp	oval-vertical.bmp	oval-vertical.bmp
23.1397540569	1.894629955300001	shape	1.01410484314	1.0	0.8	n/a	n/a	25.0343840122	25.0508451462	26.0336921215	n/a	oval-horizontal.bmp	circle.bmp	circle.bmp
26.1510620117	1.8817069531	shape	1.2265150547	1.0	0.8	n/a	n/a	28.0327689648	28.0500309467	29.0326390266	n/a	oval-horizontal.bmp	oval-horizontal.bmp	circle.bmp
32.0994160175	1.930261135100004	face	1.10361385345	1.0	0.8	29.1096520424	32.0319051743	34.0296771526	34.0456881523	35.0285410881	n/a	FAZ_23.jpg	FAZ_23.jpg	FAX_43.jpg
35.1793720722	1.851437091799994	face	1.1876718998	1.0	0.8	n/a	n/a	37.030809164	37.0471169949	38.029733181	n/a	26M_FE_O.jpg	26M_FE_O.jpg	27M_FE_O.BMP
38.1814930439	1.8479449749000023	face	0.799320220947	1.0	0.8	n/a	n/a	40.0294380188	40.046818018	41.0293951035	n/a	MFX_16.jpg	MFZ_50.jpg	MFZ_50.jpg
41.1969499588	1.8321311474000053	face	1.019947052	1.0	0.8	n/a	n/a	43.0290811062	43.0449509621	44.0282680988	n/a	09F_AN_O.jpg	09F_AN_O.jpg	10F_AN_O.jpg
44.1783270836	1.8486480712999973	face	1.20233297348	1.0	0.8	n/a	n/a	46.0269751549	46.0443770885	47.0267629623	n/a	38M_AN_O.BMP	39M_AN_O.jpg	39M_AN_O.jpg
47.1614439487	1.8654751778000005	face	1.59381818771	1.0	0.8	n/a	n/a	49.0269191265	49.0427370071	50.0263359547	n/a	FFZ_102.jpg	FFX_130.jpg	FFX_130.jpg
53.0885431767	1.9513988494000003	shape	0.900625944138	1.0	0.8	50.1047739983	53.0419480801	55.0399420261	55.0557820797	56.0394771099	n/a	oval-horizontal.bmp	oval-vertical.bmp	oval-vertical.bmp
56.156744957	1.884533166899999	shape	0.705319881439	1.0	0.8	n/a	n/a	58.0412781239	58.057046175	59.0408511162	n/a	circle.bmp	oval-vertical.bmp	oval-vertical.bmp
59.1584620476	1.8821380138000023	shape	0.685654878616	0.0	0.8	n/a	n/a	61.0406000614	61.0574240685	62.0394141674	n/a	oval-horizontal.bmp	oval-horizontal.bmp	oval-vertical.bmp
62.1565310955	1.882284879699995	shape	0.95263004303	1.0	0.8	n/a	n/a	64.0388159752	64.0550229549	65.0382790565	n/a	oval-horizontal.bmp	oval-horizontal.bmp	circle.bmp
65.1548099518	1.8834640979999904	shape	0.829962968826	1.0	0.8	n/a	n/a	67.0382740498	67.0544390678	68.0376541615	n/a	circle.bmp	circle.bmp	oval-vertical.bmp
68.1467809677	1.8904981613000016	shape	0.878259897232	1.0	0.8	n/a	n/a	70.037279129	70.0530021191	71.0366880894	n/a	oval-horizontal.bmp	circle.bmp	circle.bmp
74.1322171688	1.9008538723000044	face	1.58419919014	1.0	0.8	71.1168310642	74.0352389812	76.0330710411	76.0492670536	77.0351741314	n/a	03F_FE_O.jpg	05F_FE_O.jpg	05F_FE_O.jpg
77.1840310097	1.849840164199989	face	1.20448493958	1.0	0.8	n/a	n/a	79.0338711739	79.0512239933	80.0346009731	n/a	FAZ_32.jpg	FAZ_32.jpg	FAX_45.jpg
80.1684269905	1.865230083500009	face	1.1682331562	1.0	0.8	n/a	n/a	82.033657074	82.0495481491	83.0332350731	n/a	MAZ_128.jpg	MAZ_101.jpg	MAZ_101.jpg
83.2022030354	1.830868959399993	face	1.45148921013	1.0	0.8	n/a	n/a	85.0330719948	85.0488231182	86.0314309597	n/a	11F_AN_O.jpg	11F_AN_O.jpg	12F_AN_O.jpg
86.1993410587	1.8321409226000045	face	0.850457906723	1.0	0.8	n/a	n/a	88.0314819813	88.048208952	89.0302419662	n/a	26M_FE_O.jpg	33M_FE_O.jpg	33M_FE_O.jpg
89.1650230885	1.8657729624999888	face	0.893200159073	1.0	0.8	n/a	n/a	91.030796051	91.0470130444	92.0301239491	n/a	MFZ_132.jpg	MFZ_132.jpg	MFZ_120.jpg
95.0765321255	1.9505460262000007	shape	0.636286020279	1.0	0.8	92.1127450466	95.0291931629	97.0270781517	97.0425701141	98.0278041363	n/a	circle.bmp	oval-vertical.bmp	oval-vertical.bmp
98.1440939903	1.884253024700001	shape	0.785888910294	1.0	0.8	n/a	n/a	100.028347015	100.04491806	101.027356148	n/a	oval-horizontal.bmp	oval-horizontal.bmp	circle.bmp
101.145630121	1.8818578719999977	shape	0.585484027863	1.0	0.8	n/a	n/a	103.027487993	103.043704033	104.026590109	n/a	oval-horizontal.bmp	oval-vertical.bmp	oval-vertical.bmp
104.14371109	1.898374081	shape	0.753108978271	1.0	0.8	n/a	n/a	106.042085171	106.059198141	107.042104006	n/a	oval-horizontal.bmp	circle.bmp	circle.bmp
107.175573111	1.8660130499999923	shape	1.24460887909	1.0	0.8	n/a	n/a	109.041586161	109.058613062	110.041118145	n/a	oval-horizontal.bmp	oval-horizontal.bmp	oval-vertical.bmp
110.157534122	1.8832080370000028	shape	0.811486005783	1.0	0.8	n/a	n/a	112.040742159	112.056640148	113.039587021	n/a	circle.bmp	circle.bmp	oval-vertical.bmp
116.103232145	1.933786868999988	face	0.970378875732	1.0	0.8	113.124166965	116.03959918	118.037019014	118.052821159	119.038647175	n/a	FAZ_23.jpg	FAZ_23.jpg	FAX_43.jpg
119.188413143	1.850111007999999	face	0.754281044006	1.0	0.8	n/a	n/a	121.038524151	121.055768967	122.037680149	n/a	26M_FE_O.jpg	26M_FE_O.jpg	27M_FE_O.BMP
122.171533108	1.866268872999996	face	0.852061986923	1.0	0.8	n/a	n/a	124.037801981	124.054429054	125.037196159	n/a	MFZ_50.jpg	MFZ_50.jpg	MFX_16.jpg
125.221359968	1.8147830959999995	face	0.919106006622	1.0	0.8	n/a	n/a	127.036143064	127.05261898	128.035089016	n/a	10F_AN_O.jpg	09F_AN_O.jpg	09F_AN_O.jpg
128.185995102	1.8493800159999976	face	0.841174125671	1.0	0.8	n/a	n/a	130.035375118	130.051598072	131.034791946	n/a	38M_AN_O.BMP	39M_AN_O.jpg	39M_AN_O.jpg
131.168354034	1.865756035000004	face	0.894582033157	1.0	0.8	n/a	n/a	133.034110069	133.051109076	134.033787966	n/a	FFZ_102.jpg	FFX_130.jpg	FFX_130.jpg
137.0799191	1.950152873999997	shape	0.717730998993	1.0	0.8	134.120745182	137.033159018	139.030071974	139.04679513	140.032444954	n/a	oval-horizontal.bmp	oval-horizontal.bmp	oval-vertical.bmp
140.147864103	1.884383917000008	shape	0.588208198547	1.0	0.8	n/a	n/a	142.03224802	142.04858017	143.031666994	n/a	oval-horizontal.bmp	oval-vertical.bmp	oval-vertical.bmp
143.148653984	1.882188081999999	shape	1.28273200989	1.0	0.8	n/a	n/a	145.030842066	145.047875166	146.030290127	n/a	circle.bmp	circle.bmp	oval-vertical.bmp
146.151829004	1.8781709669999884	shape	0.780495882034	1.0	0.8	n/a	n/a	148.029999971	148.046434164	149.029288054	n/a	circle.bmp	oval-vertical.bmp	oval-vertical.bmp
149.146317005	1.8821270470000115	shape	0.844233989716	1.0	0.8	n/a	n/a	151.028444052	151.045598984	152.028223038	n/a	oval-horizontal.bmp	circle.bmp	circle.bmp
152.153150082	1.8747460840000088	shape	0.843190908432	1.0	0.8	n/a	n/a	154.027896166	154.044187069	155.026992083	n/a	oval-horizontal.bmp	oval-horizontal.bmp	circle.bmp
158.123303175	1.903343916000012	face	1.15101194382	1.0	0.8	155.114087105	158.025866985	160.026647091	160.042304993	161.02604413	n/a	20M_FE_O.jpg	21M_FE_O.jpg	21M_FE_O.jpg
161.208619118	1.8338658810000084	face	0.853629827499	1.0	0.8	n/a	n/a	163.042484999	163.059148073	164.04212904	n/a	01F_AN_O.jpg	07F_AN_O.jpg	07F_AN_O.jpg
164.191847086	1.849153042000012	face	0.769144058228	1.0	0.8	n/a	n/a	166.041000128	166.057667971	167.040400982	n/a	FFX_139.jpg	FFZ_102.jpg	FFZ_102.jpg
167.211666107	1.8280179499999747	face	1.1820089817	1.0	0.8	n/a	n/a	169.039684057	169.056409121	170.039225101	n/a	23M_AN_O.jpg	23M_AN_O.jpg	22M_AN_O.jpg
170.179851055	1.8592650889999904	face	0.76279091835	1.0	0.8	n/a	n/a	172.039116144	172.055789948	173.038308144	n/a	MAZ_146.jpg	MAZ_146.jpg	MAX_233.jpg
173.206068039	1.831799029999985	face	0.992984056473	1.0	0.8	n/a	n/a	175.037867069	175.053778172	176.037528038	n/a	15F_FE_O.jpg	15F_FE_O.jpg	16F_FE_O.jpg
179.084058046	1.9528360369999973	shape	1.26989603043	1.0	0.8	176.127038002	179.036518097	181.036894083	181.053119183	182.036081076	n/a	oval-horizontal.bmp	oval-vertical.bmp	oval-vertical.bmp
182.16853714	1.8675949569999943	shape	1.46742582321	1.0	0.8	n/a	n/a	184.036132097	184.052061081	185.034989119	n/a	circle.bmp	oval-vertical.bmp	oval-vertical.bmp
185.169172049	1.8656060689999947	shape	1.15126895905	1.0	0.8	n/a	n/a	187.034778118	187.051198006	188.034039974	n/a	oval-horizontal.bmp	oval-horizontal.bmp	oval-vertical.bmp
188.155375004	1.8775401110000016	shape	0.999294996262	1.0	0.8	n/a	n/a	190.032915115	190.049635172	191.032531023	n/a	oval-horizontal.bmp	oval-horizontal.bmp	circle.bmp
191.150578022	1.8821289539999952	shape	0.846648216248	1.0	0.8	n/a	n/a	193.032706976	193.048536062	194.032160044	n/a	circle.bmp	circle.bmp	oval-vertical.bmp
194.148780107	1.883576870000013	shape	0.943666934967	1.0	0.8	n/a	n/a	196.032356977	196.048189163	197.031013966	n/a	oval-horizontal.bmp	circle.bmp	circle.bmp
200.094486952	1.935306072000003	face	0.802412033081	1.0	0.8	197.117961168	200.029584169	202.029793024	202.046578169	203.028841972	n/a	FFX_54.jpg	FFX_54.jpg	FAX_51.jpg
203.198570967	1.830483197999996	face	1.00363087654	1.0	0.8	n/a	n/a	205.029054165	205.045459032	206.028753996	n/a	40M_FE_O.BMP	41M_FE_O.jpg	41M_FE_O.jpg
206.213325977	1.815163135999996	face	0.834324121475	1.0	0.8	n/a	n/a	208.028489113	208.044160128	209.027032137	n/a	29M_AN_O.jpg	29M_AN_O.jpg	28M_AN_O.jpg
209.178383112	1.848825931999983	face	1.23711490631	1.0	0.8	n/a	n/a	211.027209044	211.043639183	212.026369095	n/a	FFZ_18.jpg	FFZ_29.jpg	FFZ_29.jpg
212.200140953	1.8428511620000163	face	1.04544687271	1.0	0.8	n/a	n/a	214.042992115	214.059342146	215.025794983	n/a	19F_AN_O.jpg	19F_AN_O.jpg	09F_AN_O.jpg
215.175554991	1.866230963999982	face	0.743005990982	1.0	0.8	n/a	n/a	217.041785955	217.058272123	218.041258097	n/a	MFZ_132.jpg	MFZ_7.jpg	MFZ_7.jpg
221.088688135	1.9519138339999813	shape	0.734620809555	1.0	0.8	218.136263132	221.040071011	223.040601969	223.057090998	224.039361954	n/a	circle.bmp	oval-vertical.bmp	oval-vertical.bmp
224.172614098	1.866967915999993	shape	1.31981396675	0.0	0.8	n/a	n/a	226.039582014	226.056252003	227.038402081	n/a	oval-horizontal.bmp	oval-horizontal.bmp	circle.bmp
227.173645973	1.8639330870000208	shape	0.717455863953	1.0	0.8	n/a	n/a	229.03757906	229.054845095	230.037112951	n/a	oval-horizontal.bmp	oval-vertical.bmp	oval-vertical.bmp
230.159384012	1.8766951559999825	shape	0.964178800583	1.0	0.8	n/a	n/a	232.036079168	232.053133011	233.036645174	n/a	oval-horizontal.bmp	circle.bmp	circle.bmp
233.161929131	1.873913049000009	shape	0.979033946991	1.0	0.8	n/a	n/a	235.03584218	235.052502155	236.035321951	n/a	oval-horizontal.bmp	oval-horizontal.bmp	oval-vertical.bmp
236.162631989	1.8728590009999948	shape	1.04372596741	1.0	0.8	n/a	n/a	238.03549099	238.051553965	239.034672022	n/a	circle.bmp	circle.bmp	oval-vertical.bmp
242.118610144	1.915424822999995	face	1.30536794662	0.0	0.8	239.128322124	242.033813	244.034034967	244.049991131	245.033566952	n/a	20M_FE_O.jpg	21M_FE_O.jpg	21M_FE_O.jpg
245.217683077	1.8156430720000003	face	0.87042593956	1.0	0.8	n/a	n/a	247.033326149	247.049329042	248.031780958	n/a	07F_AN_O.jpg	07F_AN_O.jpg	01F_AN_O.jpg
248.183400154	1.8484117989999904	face	1.08603405952	1.0	0.8	n/a	n/a	250.031811953	250.048380136	251.031017065	n/a	FFZ_102.jpg	FFZ_102.jpg	FFX_139.jpg
251.202551126	1.8280220039999904	face	0.863754034042	1.0	0.8	n/a	n/a	253.03057313	253.047314167	254.030248165	n/a	22M_AN_O.jpg	23M_AN_O.jpg	23M_AN_O.jpg
254.180891037	1.848951100999983	face	1.0117020607	1.0	0.8	n/a	n/a	256.029842138	256.046395063	257.028748989	n/a	MAX_233.jpg	MAZ_146.jpg	MAZ_146.jpg
257.190222025	1.8390989299999767	face	0.807037115097	1.0	0.8	n/a	n/a	259.029320955	259.045403004	260.027686119	n/a	15F_FE_O.jpg	15F_FE_O.jpg	16F_FE_O.jpg
263.076091051	1.9520039559999989	shape	1.38787794113	1.0	0.8	260.126029015	263.027838945	265.028095007	265.044002056	266.027260065	n/a	oval-horizontal.bmp	oval-horizontal.bmp	oval-vertical.bmp
266.160427094	1.866252899000017	shape	1.3857178688	1.0	0.8	n/a	n/a	268.026679993	268.042219162	269.026098967	n/a	oval-horizontal.bmp	oval-vertical.bmp	oval-vertical.bmp
269.159649134	1.881575822999992	shape	0.902508020401	1.0	0.8	n/a	n/a	271.041224957	271.058725119	272.041341066	n/a	circle.bmp	circle.bmp	oval-vertical.bmp
272.174632072	1.8666589260000137	shape	1.35197019577	1.0	0.8	n/a	n/a	274.041290998	274.05795908	275.039617062	n/a	circle.bmp	oval-vertical.bmp	oval-vertical.bmp
275.165322065	1.874006987000029	shape	1.47917890549	1.0	0.8	n/a	n/a	277.039329052	277.056632042	278.039402962	n/a	oval-horizontal.bmp	circle.bmp	circle.bmp
278.182875156	1.856741905999968	shape	0.809684991837	1.0	0.8	n/a	n/a	280.039617062	280.055502176	281.037831068	n/a	oval-horizontal.bmp	oval-horizontal.bmp	circle.bmp
284.102553129	1.9351899630000275	face	0.871218919754	1.0	0.8	281.136018038	284.034752131	286.037743092	286.054118156	287.037213087	n/a	FFZ_18.jpg	FAZ_129.jpg	FAZ_129.jpg
287.221127033	1.8157701490000024	face	1.63415288925	1.0	0.8	n/a	n/a	289.036897182	289.053786039	290.035483122	n/a	20M_FE_O.jpg	24M_FE_O.jpg	24M_FE_O.jpg
290.189002037	1.846837996999966	face	0.747319936752	1.0	0.8	n/a	n/a	292.035840034	292.051881075	293.034895182	n/a	FAZ_23.jpg	FAX_25.jpg	FAX_25.jpg
293.219072104	1.815420865999954	face	1.00300812721	1.0	0.8	n/a	n/a	295.03449297	295.051290989	296.033840179	n/a	33M_FE_O.jpg	33M_FE_O.jpg	35M_FE_O.jpg
296.217869997	1.8155450820000285	face	1.05997610092	1.0	0.8	n/a	n/a	298.033415079	298.050102949	299.032230139	n/a	01F_AN_O.jpg	01F_AN_O.jpg	02F_AN_O.jpg
299.182948112	1.8494689469999912	face	0.909068822861	1.0	0.8	n/a	n/a	301.032417059	301.049304962	302.031927109	n/a	MFZ_132.jpg	MFZ_132.jpg	MFZ_120.jpg
305.079780102	1.951467991000016	shape	1.58528399467	1.0	0.8	302.130164146	305.028620958	307.031248093	307.047953129	308.030999184	n/a	oval-horizontal.bmp	oval-vertical.bmp	oval-vertical.bmp
308.164829969	1.865705014000013	shape	1.16721320152	1.0	0.8	n/a	n/a	310.030534983	310.046792984	311.028556108	n/a	circle.bmp	oval-vertical.bmp	oval-vertical.bmp
311.180096149	1.849171877000004	shape	1.4025080204	1.0	0.8	n/a	n/a	313.029268026	313.045880079	314.028435946	n/a	oval-horizontal.bmp	oval-horizontal.bmp	oval-vertical.bmp
314.162747145	1.865530966999984	shape	1.05355811119	1.0	0.8	n/a	n/a	316.028278112	316.044258118	317.026606083	n/a	oval-horizontal.bmp	oval-horizontal.bmp	circle.bmp
317.161837101	1.865506886999981	shape	0.927248954773	1.0	0.8	n/a	n/a	319.027343988	319.043606043	320.026009083	n/a	circle.bmp	circle.bmp	oval-vertical.bmp
320.153220177	1.8732779020000407	shape	0.925168037415	1.0	0.8	n/a	n/a	322.026498079	322.043018103	323.025743961	n/a	oval-horizontal.bmp	circle.bmp	circle.bmp
326.140302181	1.900902986999995	face	1.50185894966	1.0	0.8	323.128998995	326.040030956	328.041205168	328.058043003	329.040846109	n/a	17F_FE_O.jpg	18F_FE_O.jpg	18F_FE_O.jpg
329.241624117	1.7990798949999771	face	0.802989006042	1.0	0.8	n/a	n/a	331.040704012	331.056568146	332.038860083	n/a	42M_AN_O.jpg	43M_AN_O.jpg	43M_AN_O.jpg
332.223751068	1.815478086999974	face	0.986294984818	1.0	0.8	n/a	n/a	334.039229155	334.055909157	335.038375139	n/a	31M_FE_O.jpg	31M_FE_O.jpg	32M_FE_O.jpg
335.197280169	1.840926884999988	face	0.98060798645	1.0	0.8	n/a	n/a	337.038207054	337.055029154	338.03779912	n/a	FAZ_212.jpg	FFZ_236.jpg	FFZ_236.jpg
338.213402033	1.823530911999967	face	1.04221606255	1.0	0.8	n/a	n/a	340.036932945	340.054075003	341.036623001	n/a	06F_FE_O.jpg	06F_FE_O.jpg	08F_FE_O.jpg
341.187407017	1.8483679290000048	face	1.07580208778	1.0	0.8	n/a	n/a	343.035774946	343.052551985	344.036075115	n/a	MAZ_128.jpg	MAZ_128.jpg	MAX_39.jpg
347.084700108	1.9504809379999983	shape	0.835412025452	1.0	0.8	344.138883114	347.03470397	349.035181046	349.051972151	350.034366131	n/a	circle.bmp	oval-vertical.bmp	oval-vertical.bmp
350.185109138	1.848376036000048	shape	0.936141967773	1.0	0.8	n/a	n/a	352.033485174	352.050676107	353.032669067	n/a	oval-horizontal.bmp	oval-horizontal.bmp	circle.bmp
353.183421135	1.848605871000018	shape	0.918769836426	1.0	0.8	n/a	n/a	355.032027006	355.048824072	356.032245159	n/a	oval-horizontal.bmp	oval-vertical.bmp	oval-vertical.bmp
356.165508986	1.8663129799999751	shape	1.06799316406	1.0	0.8	n/a	n/a	358.031821966	358.048278093	359.030938148	n/a	oval-horizontal.bmp	circle.bmp	circle.bmp
359.173431158	1.8575038909999648	shape	1.44459199905	1.0	0.8	n/a	n/a	361.030935049	361.047605038	362.030503035	n/a	oval-horizontal.bmp	oval-horizontal.bmp	oval-vertical.bmp
362.175457001	1.8544940950000068	shape	1.07583403587	1.0	0.8	n/a	n/a	364.029951096	364.046525955	365.028875113	n/a	circle.bmp	circle.bmp	oval-vertical.bmp
368.094999075	1.9330670830000256	face	0.771625995636	1.0	0.8	365.140382051	368.028834105	370.028066158	370.045281172	371.027376175	n/a	FFZ_18.jpg	FAZ_129.jpg	FAZ_129.jpg
371.212907076	1.814311981000003	face	1.23633885384	1.0	0.8	n/a	n/a	373.027219057	373.044157028	374.026957989	n/a	20M_FE_O.jpg	24M_FE_O.jpg	24M_FE_O.jpg
374.193560123	1.849236965999978	face	0.887330055237	1.0	0.8	n/a	n/a	376.042797089	376.058801174	377.025616169	n/a	FAZ_23.jpg	FAX_25.jpg	FAX_25.jpg
377.198732138	1.842715978000001	face	1.13071799278	1.0	0.8	n/a	n/a	379.041448116	379.058312178	380.041380167	n/a	33M_FE_O.jpg	33M_FE_O.jpg	35M_FE_O.jpg
380.225089073	1.816184997999983	face	0.893213033676	1.0	0.8	n/a	n/a	382.041274071	382.057574987	383.040780067	n/a	01F_AN_O.jpg	01F_AN_O.jpg	02F_AN_O.jpg
383.207162142	1.8331298829999696	face	0.80890083313	1.0	0.8	n/a	n/a	385.040292025	385.057052135	386.039503098	394.436926126	MFZ_132.jpg	MFZ_132.jpg	MFZ_120.jpg
