onset	duration	trial_type	response_time	accuracy_binarized	tr_seconds	cueStartTime	cueEndTime	trialEndTime	fixStartTime	fixEndTime	runEndTime	stimLeft	stimTop	stimRight
11.121026039123535	1.934553146362305	shape	1.53374314308	1.0	0.8	8.06352710723877	11.05472207069397	13.05557918548584	13.08757209777832	14.087903022766112	n/a	oval-horizontal.bmp	oval-horizontal.bmp	oval-vertical.bmp
14.20440411567688	1.8675780296325684	shape	1.300344944	0.0	0.8	n/a	n/a	16.07198214530945	16.104305028915405	17.07131814956665	n/a	oval-horizontal.bmp	oval-vertical.bmp	oval-vertical.bmp
17.171077013015747	1.901029109954834	shape	1.53373789787	1.0	0.8	n/a	n/a	19.07210612297058	19.10426115989685	20.071319103240967	n/a	circle.bmp	circle.bmp	oval-vertical.bmp
20.17110514640808	1.9009439945220947	shape	1.10041594505	1.0	0.8	n/a	n/a	22.072049140930176	22.104279041290283	23.07138299942017	n/a	circle.bmp	oval-vertical.bmp	oval-vertical.bmp
23.17112398147583	1.901021003723141	shape	1.1672167778	1.0	0.8	n/a	n/a	25.07214498519897	25.104305028915405	26.07137417793274	n/a	oval-horizontal.bmp	circle.bmp	circle.bmp
26.17113709449768	1.90096402168274	shape	1.13376784325	1.0	0.8	n/a	n/a	28.07210111618042	28.104340076446533	29.07139301300049	n/a	oval-horizontal.bmp	oval-horizontal.bmp	circle.bmp
32.17109799385071	1.902904987335205	face	1.00237202644	1.0	0.8	29.13385319709778	32.088096141815186	34.07400298118591	34.104820013046265	35.074427127838135	n/a	FAZ_23.jpg	FAZ_23.jpg	FAX_43.jpg
35.23834300041199	1.8355422019958496	face	0.832566976547	1.0	0.8	n/a	n/a	37.07388520240784	37.104804039001465	38.07447504997253	n/a	26M_FE_O.jpg	26M_FE_O.jpg	27M_FE_O.BMP
38.20519304275513	1.8686270713806152	face	1.19916391373	1.0	0.8	n/a	n/a	40.07382011413574	40.10486102104187	41.07448410987854	n/a	MFX_16.jpg	MFZ_50.jpg	MFZ_50.jpg
41.23850107192993	1.835381031036377	face	0.832545042038	1.0	0.8	n/a	n/a	43.07388210296631	43.10489106178284	44.074512004852295	n/a	09F_AN_O.jpg	09F_AN_O.jpg	10F_AN_O.jpg
44.23835706710816	1.835547924041741	face	1.09917020798	1.0	0.8	n/a	n/a	46.0739049911499	46.104878187179565	47.07455515861511	n/a	38M_AN_O.BMP	39M_AN_O.jpg	39M_AN_O.jpg
47.20509099960327	1.8688411712646484	face	1.33261609077	1.0	0.8	n/a	n/a	49.07393217086792	49.104915142059326	50.07454419136048	n/a	FFZ_102.jpg	FFX_130.jpg	FFX_130.jpg
53.15518403053284	1.9361109733581543	shape	0.733696937561	0.0	0.8	50.13413214683533	53.09057021141052	55.09129500389099	55.121615171432495	56.09126710891724	n/a	oval-horizontal.bmp	oval-vertical.bmp	oval-vertical.bmp
56.188528060913086	1.902635097503662	shape	1.13314795494	0.0	0.8	n/a	n/a	58.09116315841675	58.121676206588745	59.09127116203308	n/a	circle.bmp	oval-vertical.bmp	oval-vertical.bmp
59.18841099739075	1.902764081954956	shape	1.39983010292	1.0	0.8	n/a	n/a	61.0911750793457	61.1216561794281	62.09128999710083	n/a	oval-horizontal.bmp	oval-horizontal.bmp	oval-vertical.bmp
62.18841814994812	1.9027738571166992	shape	1.43319296837	1.0	0.8	n/a	n/a	64.09119200706482	64.1216812133789	65.09130120277405	n/a	oval-horizontal.bmp	oval-horizontal.bmp	circle.bmp
65.18842720985413	1.902702808380127	shape	1.19987201691	1.0	0.8	n/a	n/a	67.09113001823425	67.12172102928162	68.0913610458374	n/a	circle.bmp	circle.bmp	oval-vertical.bmp
68.18846321105957	1.902730941772461	shape	1.06621289253	1.0	0.8	n/a	n/a	70.09119415283203	70.12173318862915	71.09137320518494	n/a	oval-horizontal.bmp	circle.bmp	circle.bmp
74.18878602981567	1.90214204788208	face	1.36653614044	1.0	0.8	71.15143513679504	74.07406115531921	76.09092807769775	76.12175917625427	77.05814099311829	n/a	03F_FE_O.jpg	05F_FE_O.jpg	05F_FE_O.jpg
77.18864011764526	1.902177095413208	face	0.999208927155	1.0	0.8	n/a	n/a	79.09081721305847	79.12191319465637	80.09144306182861	n/a	FAZ_32.jpg	FAZ_32.jpg	FAX_45.jpg
80.22202110290527	1.8688468933105469	face	1.16594600677	1.0	0.8	n/a	n/a	82.09086799621582	82.12186002731323	83.05815601348877	n/a	MAZ_128.jpg	MAZ_101.jpg	MAZ_101.jpg
83.22238111495972	1.868468999862671	face	1.26592707634	1.0	0.8	n/a	n/a	85.09085011482239	85.12187910079956	86.05817198753357	n/a	11F_AN_O.jpg	11F_AN_O.jpg	12F_AN_O.jpg
86.22204804420471	1.86880111694336	face	0.865916013718	1.0	0.8	n/a	n/a	88.09084916114807	88.12184810638428	89.05821800231934	n/a	26M_FE_O.jpg	33M_FE_O.jpg	33M_FE_O.jpg
89.20542407035828	1.8687980175018453	face	0.999176025391	1.0	0.8	n/a	n/a	91.07422208786012	91.10521912574768	92.07484817504884	n/a	MFZ_132.jpg	MFZ_132.jpg	MFZ_120.jpg
95.1555721759796	1.935997009277358	shape	1.06717705727	1.0	0.8	92.13704705238342	95.09089708328248	97.09156918525696	97.12187719345091	98.05830717086792	n/a	circle.bmp	oval-vertical.bmp	oval-vertical.bmp
98.17230916023254	1.902492046356216	shape	0.632944107056	1.0	0.8	n/a	n/a	100.07480120658876	100.10527801513672	101.07495903968812	n/a	oval-horizontal.bmp	oval-horizontal.bmp	circle.bmp
101.18897414207458	1.902515888214112	shape	0.866281032562	0.0	0.8	n/a	n/a	103.0914900302887	103.12196516990662	104.0582630634308	n/a	oval-horizontal.bmp	oval-vertical.bmp	oval-vertical.bmp
104.15538716316225	1.936075925827012	shape	0.833086013794	1.0	0.8	n/a	n/a	106.09146308898926	106.12199401855467	107.05839014053343	n/a	oval-horizontal.bmp	circle.bmp	circle.bmp
107.1723370552063	1.9025421142578267	shape	0.766395807266	1.0	0.8	n/a	n/a	109.07487916946413	109.10532808303832	110.07503819465636	n/a	oval-horizontal.bmp	oval-horizontal.bmp	oval-vertical.bmp
110.18905520439148	1.9024388790130613	shape	0.966308116913	1.0	0.8	n/a	n/a	112.09149408340454	112.12201404571532	113.05842208862305	n/a	circle.bmp	circle.bmp	oval-vertical.bmp
116.17224621772766	1.9023828506469729	face	0.766560077667	1.0	0.8	113.12272310256958	116.09102606773376	118.07462906837463	118.1053991317749	119.07504606246948	n/a	FAZ_23.jpg	FAZ_23.jpg	FAX_43.jpg
119.23911118507384	1.835366010665922	face	1.0991859436	1.0	0.8	n/a	n/a	121.07447719573976	121.1054232120514	122.0750651359558	n/a	26M_FE_O.jpg	26M_FE_O.jpg	27M_FE_O.BMP
122.20554304122923	1.8689770698547503	face	0.732601881027	1.0	0.8	n/a	n/a	124.07452011108398	124.10544800758362	125.07512307167052	n/a	MFZ_50.jpg	MFZ_50.jpg	MFX_16.jpg
125.23917603492735	1.835314035415664	face	1.03266692162	1.0	0.8	n/a	n/a	127.07449007034302	127.10548114776611	128.07516813278198	n/a	10F_AN_O.jpg	09F_AN_O.jpg	09F_AN_O.jpg
128.239018201828	1.8355379104614256	face	1.03260993958	1.0	0.8	n/a	n/a	130.07455611228943	130.10552310943604	131.07517504692078	n/a	38M_AN_O.BMP	39M_AN_O.jpg	39M_AN_O.jpg
131.22264313697815	1.86854887008667	face	1.06589818001	1.0	0.8	n/a	n/a	133.09119200706482	133.12223505973816	134.0585579872131	n/a	FFZ_102.jpg	FFX_130.jpg	FFX_130.jpg
137.1558802127838	1.936116933822632	shape	1.23384618759	1.0	0.8	134.1243200302124	137.09118914604187	139.09199714660645	139.1222321987152	140.05855107307434	n/a	oval-horizontal.bmp	oval-horizontal.bmp	oval-vertical.bmp
140.17261219024658	1.9024770259857176	shape	0.69980597496	0.0	0.8	n/a	n/a	142.0750892162323	142.10559511184692	143.0752580165863	n/a	oval-horizontal.bmp	oval-vertical.bmp	oval-vertical.bmp
143.18911910057068	1.902592897415161	shape	0.99964094162	1.0	0.8	n/a	n/a	145.09171199798584	145.12229704856873	146.0586121082306	n/a	circle.bmp	circle.bmp	oval-vertical.bmp
146.17265510559082	1.9024651050567627	shape	1.09966111183	1.0	0.8	n/a	n/a	148.07512021064758	148.105642080307	149.07533621788025	n/a	circle.bmp	oval-vertical.bmp	oval-vertical.bmp
149.18917417526245	1.902659893035889	shape	1.13298392296	1.0	0.8	n/a	n/a	151.09183406829834	151.12231302261353	152.0586380958557	n/a	oval-horizontal.bmp	circle.bmp	circle.bmp
152.1725561618805	1.9026439189910889	shape	0.666400909424	1.0	0.8	n/a	n/a	154.07520008087158	154.10564303398132	155.07534217834473	n/a	oval-horizontal.bmp	oval-horizontal.bmp	circle.bmp
158.18938398361206	1.902225017547608	face	1.16658592224	1.0	0.8	155.14161014556885	158.07470202445984	160.09160900115967	160.12237119674683	161.05868005752563	n/a	20M_FE_O.jpg	21M_FE_O.jpg	21M_FE_O.jpg
161.22258806228638	1.868826150894165	face	1.63262701035	1.0	0.8	n/a	n/a	163.09141421318054	163.1224501132965	164.05868220329285	n/a	01F_AN_O.jpg	07F_AN_O.jpg	07F_AN_O.jpg
164.20588612556458	1.8689820766448968	face	0.799171924591	1.0	0.8	n/a	n/a	166.07486820220947	166.10577201843262	167.07541608810425	n/a	FFX_139.jpg	FFZ_102.jpg	FFZ_102.jpg
167.23932099342346	1.8355181217193604	face	1.26587200165	1.0	0.8	n/a	n/a	169.07483911514282	169.10580706596377	170.07545518875122	n/a	23M_AN_O.jpg	23M_AN_O.jpg	22M_AN_O.jpg
170.2060890197754	1.868800163269043	face	0.999260902405	1.0	0.8	n/a	n/a	172.07488918304443	172.1058120727539	173.07542300224304	n/a	MAZ_146.jpg	MAZ_146.jpg	MAX_233.jpg
173.23949909210205	1.8352389335632324	face	n/a	0.0	0.8	n/a	n/a	175.07473802566528	175.10582518577576	176.0755259990692	n/a	15F_FE_O.jpg	15F_FE_O.jpg	16F_FE_O.jpg
179.13996505737305	1.9356219768523888	shape	0.633891105652	0.0	0.8	176.14322519302368	179.07484316825867	181.07558703422544	181.10588121414185	182.0755569934845	n/a	oval-horizontal.bmp	oval-vertical.bmp	oval-vertical.bmp
182.18939113616943	1.86945605278018	shape	0.733157873154	1.0	0.8	n/a	n/a	184.0588471889496	184.08928608894348	185.05886220932007	n/a	circle.bmp	oval-vertical.bmp	oval-vertical.bmp
185.17277121543884	1.902699947357149	shape	0.699934005737	1.0	0.8	n/a	n/a	187.075471162796	187.10592412948608	188.0755741596222	n/a	oval-horizontal.bmp	oval-horizontal.bmp	oval-vertical.bmp
188.18944907188416	1.869456052780152	shape	0.633104801178	1.0	0.8	n/a	n/a	190.0589051246643	190.0893290042877	191.05893516540527	n/a	oval-horizontal.bmp	oval-horizontal.bmp	circle.bmp
191.1728131771088	1.902581930160494	shape	0.76633310318	1.0	0.8	n/a	n/a	193.0753951072693	193.1059432029724	194.0755980014801	n/a	circle.bmp	circle.bmp	oval-vertical.bmp
194.1895501613617	1.869362831115751	shape	0.966307163239	1.0	0.8	n/a	n/a	196.05891299247745	196.0893201828003	197.05893921852112	n/a	oval-horizontal.bmp	circle.bmp	circle.bmp
200.15622401237488	1.90273118019104	face	0.933338880539	1.0	0.8	197.1278600692749	200.0583200454712	202.05895519256592	202.08934712409973	203.0590751171112	n/a	FFX_54.jpg	FFX_54.jpg	FAX_51.jpg
203.22298908233645	1.868767976760836	face	0.799321889877	1.0	0.8	n/a	n/a	205.0917570590973	205.12270402908325	206.0589680671692	n/a	40M_FE_O.BMP	41M_FE_O.jpg	41M_FE_O.jpg
206.22289299964905	1.868826150894165	face	0.69934797287	1.0	0.8	n/a	n/a	208.0917191505432	208.1227672100067	209.05908107757568	n/a	29M_AN_O.jpg	29M_AN_O.jpg	28M_AN_O.jpg
209.2064471244812	1.8687548637389853	face	0.832687854767	1.0	0.8	n/a	n/a	211.0752019882202	211.106103181839	212.075767993927	n/a	FFZ_18.jpg	FFZ_29.jpg	FFZ_29.jpg
212.23964619636536	1.8355708122253416	face	1.06590986252	1.0	0.8	n/a	n/a	214.0752170085907	214.1061110496521	215.07578802108765	n/a	19F_AN_O.jpg	19F_AN_O.jpg	09F_AN_O.jpg
215.2231562137604	1.868596792221041	face	0.699491024017	1.0	0.8	n/a	n/a	217.09175300598145	217.12280321121216	218.05911803245544	n/a	MFZ_132.jpg	MFZ_7.jpg	MFZ_7.jpg
221.12304615974423	1.9361028671265217	shape	0.700305938721	1.0	0.8	218.1277461051941	221.0585000514984	223.0591490268708	223.08954000473025	224.05915212631223	n/a	circle.bmp	oval-vertical.bmp	oval-vertical.bmp
224.1730182170868	1.9027099609375	shape	0.733083963394	1.0	0.8	n/a	n/a	226.0757281780243	226.1061971187592	227.0758790969849	n/a	oval-horizontal.bmp	oval-horizontal.bmp	circle.bmp
227.1897170543671	1.8693120479583456	shape	0.666435003281	1.0	0.8	n/a	n/a	229.05902910232544	229.08951210975647	230.0591971874237	n/a	oval-horizontal.bmp	oval-vertical.bmp	oval-vertical.bmp
230.1731100082397	1.9026510715484903	shape	0.833011865616	1.0	0.8	n/a	n/a	232.0757610797882	232.1062271595001	233.07589316368103	n/a	oval-horizontal.bmp	circle.bmp	circle.bmp
233.18978810310364	1.869374036788912	shape	0.766494989395	0.0	0.8	n/a	n/a	235.0591621398925	235.089693069458	236.0592122077942	n/a	oval-horizontal.bmp	oval-horizontal.bmp	oval-vertical.bmp
236.17311215400696	1.9026529788970947	shape	0.833003044128	1.0	0.8	n/a	n/a	238.07576513290405	238.1062970161438	239.0759561061859	n/a	circle.bmp	circle.bmp	oval-vertical.bmp
242.18998217582703	1.868840932846069	face	1.29995894432	1.0	0.8	239.14708614349365	242.07531905174253	244.0588231086731	244.08966207504272	245.059308052063	n/a	20M_FE_O.jpg	21M_FE_O.jpg	21M_FE_O.jpg
245.23986411094663	1.8356430530548096	face	0.699203968048	1.0	0.8	n/a	n/a	247.07550716400144	247.1063380241394	248.07603406906128	n/a	07F_AN_O.jpg	07F_AN_O.jpg	01F_AN_O.jpg
248.2232060432434	1.8357050418854044	face	0.732583999634	1.0	0.8	n/a	n/a	250.0589110851288	250.0897281169892	251.0593061447144	n/a	FFZ_102.jpg	FFZ_102.jpg	FFX_139.jpg
251.2403380870819	1.835187911987305	face	0.999222040176	1.0	0.8	n/a	n/a	253.0755259990692	253.1064100265503	254.0760371685028	n/a	22M_AN_O.jpg	23M_AN_O.jpg	23M_AN_O.jpg
254.2236430644989	1.8351140022277832	face	0.699356794357	1.0	0.8	n/a	n/a	256.0587570667267	256.0898220539093	257.05942606925964	n/a	MAX_233.jpg	MAZ_146.jpg	MAZ_146.jpg
257.2403900623321	1.8351719379425613	face	0.765848875046	1.0	0.8	n/a	n/a	259.07556200027466	259.10643315315247	260.07609009742737	n/a	15F_FE_O.jpg	15F_FE_O.jpg	16F_FE_O.jpg
263.14051508903503	1.9357759952545168	shape	0.900522947311	1.0	0.8	260.14885807037354	263.0754601955414	265.07629108428955	265.1064381599426	266.0761091709137	n/a	oval-horizontal.bmp	oval-horizontal.bmp	oval-vertical.bmp
266.18987011909485	1.8694748878479004	shape	0.733153104782	1.0	0.8	n/a	n/a	268.05934500694275	268.08986616134644	269.0594871044159	n/a	oval-horizontal.bmp	oval-vertical.bmp	oval-vertical.bmp
269.1732771396637	1.9027769565582275	shape	0.966480970383	1.0	0.8	n/a	n/a	271.0760540962219	271.1065211296081	272.0761950016022	n/a	circle.bmp	circle.bmp	oval-vertical.bmp
272.19002509117126	1.869257926940918	shape	0.899832963943	1.0	0.8	n/a	n/a	274.0592830181122	274.09034609794617	275.0595600605011	n/a	circle.bmp	oval-vertical.bmp	oval-vertical.bmp
275.17333912849426	1.902764081954956	shape	0.766413927078	1.0	0.8	n/a	n/a	277.0761032104492	277.10659098625183	278.0762321949005	n/a	oval-horizontal.bmp	circle.bmp	circle.bmp
278.19008708000183	1.8693599700927728	shape	0.866456031799	1.0	0.8	n/a	n/a	280.0594470500946	280.0899381637573	281.059522151947	n/a	oval-horizontal.bmp	oval-horizontal.bmp	circle.bmp
284.14003801345825	1.9359710216522217	face	1.03335118294	1.0	0.8	281.1316611766815	284.05898809432983	286.0760090351105	286.10659313201904	287.0763142108917	n/a	FFZ_18.jpg	FAZ_129.jpg	FAZ_129.jpg
287.2567780017853	1.8023691177368164	face	1.29918599129	1.0	0.8	n/a	n/a	289.0591471195221	289.0900101661682	290.0596461296081	n/a	20M_FE_O.jpg	24M_FE_O.jpg	24M_FE_O.jpg
290.2070291042328	1.868782997131348	face	1.09923100471	1.0	0.8	n/a	n/a	292.07581210136414	292.1066701412201	293.0763142108917	n/a	FAZ_23.jpg	FAX_25.jpg	FAX_25.jpg
293.25700306892395	1.802150011062622	face	0.79913187027	1.0	0.8	n/a	n/a	295.0591530799866	295.0900831222534	296.0596270561218	n/a	33M_FE_O.jpg	33M_FE_O.jpg	35M_FE_O.jpg
296.240207195282	1.835599899291992	face	0.665801048279	1.0	0.8	n/a	n/a	298.075807094574	298.106703042984	299.07640409469604	n/a	01F_AN_O.jpg	01F_AN_O.jpg	02F_AN_O.jpg
299.2234740257263	1.835738182067871	face	0.799314975739	1.0	0.8	n/a	n/a	301.0592122077942	301.09013199806213	302.0597050189972	n/a	MFZ_132.jpg	MFZ_132.jpg	MFZ_120.jpg
305.12358713150024	1.9361999034881592	shape	0.700354099274	1.0	0.8	302.1338400840759	305.05911111831665	307.0597870349884	307.0900950431824	308.0597620010376	n/a	oval-horizontal.bmp	oval-vertical.bmp	oval-vertical.bmp
308.1735210418701	1.9028780460357664	shape	0.633044958115	1.0	0.8	n/a	n/a	310.0763990879059	310.10677099227905	311.0764400959015	n/a	circle.bmp	oval-vertical.bmp	oval-vertical.bmp
311.1903359889984	1.869320154190064	shape	0.8664457798	1.0	0.8	n/a	n/a	313.0596561431885	313.09017610549927	314.0598051548004	n/a	oval-horizontal.bmp	oval-horizontal.bmp	oval-vertical.bmp
314.17357110977173	1.9028940200805664	shape	0.599745988846	1.0	0.8	n/a	n/a	316.0764651298523	316.1068470478058	317.0765151977539	n/a	oval-horizontal.bmp	oval-horizontal.bmp	circle.bmp
317.19037914276123	1.8692028522491453	shape	0.766376018524	1.0	0.8	n/a	n/a	319.0595819950104	319.09023118019104	320.0598421096802	n/a	circle.bmp	circle.bmp	oval-vertical.bmp
320.1735920906067	1.9029080867767327	shape	0.766470909119	1.0	0.8	n/a	n/a	322.0765001773834	322.10689306259155	323.0765480995178	n/a	oval-horizontal.bmp	circle.bmp	circle.bmp
326.1906189918518	1.8688151836395264	face	1.29996705055	1.0	0.8	323.15273213386536	326.07590413093567	328.05943417549133	328.0902690887451	329.05992698669434	n/a	17F_FE_O.jpg	18F_FE_O.jpg	18F_FE_O.jpg
329.24043917655945	1.8356578350067136	face	0.632499933243	1.0	0.8	n/a	n/a	331.07609701156616	331.1069221496582	332.0766501426697	n/a	42M_AN_O.jpg	43M_AN_O.jpg	43M_AN_O.jpg
332.2571201324463	1.8021609783172607	face	1.36584877968	1.0	0.8	n/a	n/a	334.05928111076355	334.0903160572052	335.0599491596222	n/a	31M_FE_O.jpg	31M_FE_O.jpg	32M_FE_O.jpg
335.2074840068817	1.868635177612305	face	0.732573986053	1.0	0.8	n/a	n/a	337.076119184494	337.10699009895325	338.0766592025757	n/a	FAZ_212.jpg	FFZ_236.jpg	FFZ_236.jpg
338.2573080062866	1.8019800186157229	face	0.965847015381	1.0	0.8	n/a	n/a	340.05928802490234	340.090359210968	341.0599579811096	n/a	06F_FE_O.jpg	06F_FE_O.jpg	08F_FE_O.jpg
341.20714116096497	1.868988037109375	face	0.865836858749	1.0	0.8	n/a	n/a	343.07612919807434	343.10709500312805	344.0766911506653	n/a	MAZ_128.jpg	MAZ_128.jpg	MAX_39.jpg
347.1406810283661	1.9362239837646484	shape	0.900435209274	1.0	0.8	344.15433716773987	347.0760600566864	349.07690501213074	349.1070091724396	350.07676815986633	n/a	circle.bmp	oval-vertical.bmp	oval-vertical.bmp
350.1904940605164	1.8694069385528	shape	0.666470050812	1.0	0.8	n/a	n/a	352.0599009990692	352.0904121398926	353.0600781440735	n/a	oval-horizontal.bmp	oval-horizontal.bmp	circle.bmp
353.1738212108612	1.902925968170166	shape	0.633100986481	0.0	0.8	n/a	n/a	355.0767471790314	355.10717606544495	356.07679319381714	n/a	oval-horizontal.bmp	oval-vertical.bmp	oval-vertical.bmp
356.1904962062836	1.8693838119506268	shape	0.899860143661	1.0	0.8	n/a	n/a	358.05988001823425	358.090537071228	359.0600781440735	n/a	oval-horizontal.bmp	circle.bmp	circle.bmp
359.1738522052765	1.9029388427734373	shape	0.666568040848	1.0	0.8	n/a	n/a	361.0767910480499	361.1071801185608	362.0768220424652	n/a	oval-horizontal.bmp	oval-horizontal.bmp	oval-vertical.bmp
362.2073621749878	1.869351863861084	shape	0.73313498497	1.0	0.8	n/a	n/a	364.0767140388489	364.10717701911926	365.07683205604553	n/a	circle.bmp	circle.bmp	oval-vertical.bmp
368.1572301387787	1.9024829864501955	face	0.833353996277	1.0	0.8	365.1554641723633	368.0762050151825	370.0597131252289	370.0905010700226	371.0601601600647	n/a	FFZ_18.jpg	FAZ_129.jpg	FAZ_129.jpg
371.24096608161926	1.835371017456055	face	1.53266596794	1.0	0.8	n/a	n/a	373.0763370990753	373.10722398757935	374.07688999176025	n/a	20M_FE_O.jpg	24M_FE_O.jpg	24M_FE_O.jpg
374.2240700721741	1.8355200290679927	face	0.766000032425	1.0	0.8	n/a	n/a	376.05959010124207	376.0906431674957	377.0602550506592	n/a	FAZ_23.jpg	FAX_25.jpg	FAX_25.jpg
377.2409691810608	1.8354129791260327	face	0.865871906281	1.0	0.8	n/a	n/a	379.0763821601868	379.107321023941	380.0769190788269	n/a	33M_FE_O.jpg	33M_FE_O.jpg	35M_FE_O.jpg
380.2574710845947	1.802172899246216	face	0.632645130157	1.0	0.8	n/a	n/a	382.05964398384094	382.0906701087952	383.0602400302887	n/a	01F_AN_O.jpg	01F_AN_O.jpg	02F_AN_O.jpg
383.2074680328369	1.868956089019776	face	0.799288988113	1.0	0.8	n/a	n/a	385.0764241218567	385.10736298561096	386.076966047287	394.4771130084992	MFZ_132.jpg	MFZ_132.jpg	MFZ_120.jpg
