onset	duration	trial_type	response_time	accuracy_binarized	tr_seconds	cueStartTime	cueEndTime	trialEndTime	fixStartTime	fixEndTime	runEndTime	stimLeft	stimTop	stimRight
11.055341959	1.9573419094	shape	0.809362888336	1.0	0.8	8.01949191093	11.0074958801	13.0126838684	13.0172529221	14.0166838169	n/a	oval-horizontal.bmp	oval-horizontal.bmp	oval-vertical.bmp
14.1270439625	1.8960390091000008	shape	1.1365840435	1.0	0.8	n/a	n/a	16.0230829716	16.0270268917	17.0229108334	n/a	oval-horizontal.bmp	oval-vertical.bmp	oval-vertical.bmp
17.1248009205	1.898381948499999	shape	0.784358024597	1.0	0.8	n/a	n/a	19.023182869	19.0269019604	20.0227069855	n/a	circle.bmp	circle.bmp	oval-vertical.bmp
20.123664856	1.899725198699997	shape	0.673090934753	1.0	0.8	n/a	n/a	22.0233900547	22.0270998478	23.0228250027	n/a	circle.bmp	oval-vertical.bmp	oval-vertical.bmp
23.1236138344	1.898754119900001	shape	0.736172914505	1.0	0.8	n/a	n/a	25.0223679543	25.0261700153	26.0216789246	n/a	oval-horizontal.bmp	circle.bmp	circle.bmp
26.1237919331	1.8983359335999983	shape	1.05435180664	1.0	0.8	n/a	n/a	28.0221278667	28.0261180401	29.0214159489	n/a	oval-horizontal.bmp	oval-horizontal.bmp	circle.bmp
32.0878059864	1.933994054800003	face	1.09284496307	1.0	0.8	29.0968010426	32.0213139057	34.0218000412	34.0264649391	35.020886898	n/a	FAZ_23.jpg	FAZ_23.jpg	FAX_43.jpg
35.1609220505	1.8603148460000007	face	0.936944961548	1.0	0.8	n/a	n/a	37.0212368965	37.0248808861	38.0207118988	n/a	26M_FE_O.jpg	26M_FE_O.jpg	27M_FE_O.BMP
38.1447389126	1.8766300678000007	face	1.03710794449	1.0	0.8	n/a	n/a	40.0213689804	40.0252079964	41.0201718807	n/a	MFX_16.jpg	MFZ_50.jpg	MFZ_50.jpg
41.172631979	1.8486058712	face	1.05219101906	1.0	0.8	n/a	n/a	43.0212378502	43.0248408318	44.0201699734	n/a	09F_AN_O.jpg	09F_AN_O.jpg	10F_AN_O.jpg
44.1583328247	1.862164020500004	face	0.835888147354	1.0	0.8	n/a	n/a	46.0204968452	46.0241010189	47.0193538666	n/a	38M_AN_O.BMP	39M_AN_O.jpg	39M_AN_O.jpg
47.1376128197	1.882668018299995	face	1.11084198952	1.0	0.8	n/a	n/a	49.020280838	49.0239620209	50.0197148323	n/a	FFZ_102.jpg	FFX_130.jpg	FFX_130.jpg
53.0586190224	1.960942983599999	shape	0.752532958984	1.0	0.8	50.0952439308	53.0187749863	55.019562006	55.0240778923	56.0184550285	n/a	oval-horizontal.bmp	oval-vertical.bmp	oval-vertical.bmp
56.1177630424	1.9013509751000013	shape	0.609423875809	1.0	0.8	n/a	n/a	58.0191140175	58.0227549076	59.0183348656	n/a	circle.bmp	oval-vertical.bmp	oval-vertical.bmp
59.1177558899	1.9007940292	shape	1.02581095695	1.0	0.8	n/a	n/a	61.0185499191	61.0222270489	62.0182919502	n/a	oval-horizontal.bmp	oval-horizontal.bmp	oval-vertical.bmp
62.1169838905	1.901054143900005	shape	0.691567182541	1.0	0.8	n/a	n/a	64.0180380344	64.0218629837	65.0175290108	n/a	oval-horizontal.bmp	oval-horizontal.bmp	circle.bmp
65.1185400486	1.899210929900008	shape	0.741344928741	1.0	0.8	n/a	n/a	67.0177509785	67.0213730335	68.0175659657	n/a	circle.bmp	circle.bmp	oval-vertical.bmp
68.1184158325	1.899219989799988	shape	0.658176898956	1.0	0.8	n/a	n/a	70.0176358223	70.0212619305	71.0169048309	n/a	oval-horizontal.bmp	circle.bmp	circle.bmp
74.104681015	1.9124310017	face	1.16860699654	1.0	0.8	71.093734026	74.0172200203	76.0171120167	76.0218160152	77.016728878	n/a	03F_FE_O.jpg	05F_FE_O.jpg	05F_FE_O.jpg
77.1379108429	1.879325151399996	face	1.13687396049	1.0	0.8	n/a	n/a	79.0172359943	79.0209908485	80.0161099434	n/a	FAZ_32.jpg	FAZ_32.jpg	FAX_45.jpg
80.1398160458	1.875785827599998	face	1.50419783592	1.0	0.8	n/a	n/a	82.0156018734	82.0198099613	83.0154869556	n/a	MAZ_128.jpg	MAZ_101.jpg	MAZ_101.jpg
83.1583628654	1.8576381207000023	face	1.17231798172	1.0	0.8	n/a	n/a	85.0160009861	85.0196619034	86.0155358315	n/a	11F_AN_O.jpg	11F_AN_O.jpg	12F_AN_O.jpg
86.1600689888	1.855630874599996	face	0.972696065903	1.0	0.8	n/a	n/a	88.0156998634	88.0200619698	89.0148179531	n/a	26M_FE_O.jpg	33M_FE_O.jpg	33M_FE_O.jpg
89.1354169846	1.8799839019000049	face	0.836082935333	1.0	0.8	n/a	n/a	91.0154008865	91.019094944	92.0144128799	n/a	MFZ_132.jpg	MFZ_132.jpg	MFZ_120.jpg
95.0519888401	1.96268820760001	shape	0.73922586441	1.0	0.8	92.0932519436	95.0150718689	97.0146770477	97.0191469193	98.0137529373	n/a	circle.bmp	oval-vertical.bmp	oval-vertical.bmp
98.11561203	1.898805857	shape	0.637824058533	1.0	0.8	n/a	n/a	100.014417887	100.018573999	101.013739824	n/a	oval-horizontal.bmp	oval-horizontal.bmp	circle.bmp
101.116777897	1.8971090319999888	shape	0.720973014832	1.0	0.8	n/a	n/a	103.013886929	103.017521858	104.013185024	n/a	oval-horizontal.bmp	oval-vertical.bmp	oval-vertical.bmp
104.11649394	1.8967669010000063	shape	0.751184940338	1.0	0.8	n/a	n/a	106.013260841	106.016830921	107.013103008	n/a	oval-horizontal.bmp	circle.bmp	circle.bmp
107.118366957	1.894757985999988	shape	0.720498085022	1.0	0.8	n/a	n/a	109.013124943	109.017076969	110.013247013	n/a	oval-horizontal.bmp	oval-horizontal.bmp	oval-vertical.bmp
110.115218878	1.8971900940000097	shape	0.753001928329	1.0	0.8	n/a	n/a	112.012408972	112.01601696	113.012092829	n/a	circle.bmp	circle.bmp	oval-vertical.bmp
116.067208052	1.9458439349999992	face	0.65319108963	1.0	0.8	113.093507051	116.011797905	118.013051987	118.017593861	119.012233019	n/a	FAZ_23.jpg	FAZ_23.jpg	FAX_43.jpg
119.145529985	1.866034030999998	face	0.652054071426	1.0	0.8	n/a	n/a	121.011564016	121.015261889	122.01095295	n/a	26M_FE_O.jpg	26M_FE_O.jpg	27M_FE_O.BMP
122.133555889	1.8779499530000123	face	0.802777051926	1.0	0.8	n/a	n/a	124.011505842	124.017096996	125.01059103	n/a	MFZ_50.jpg	MFZ_50.jpg	MFX_16.jpg
125.161798954	1.8496658799999888	face	0.899254083633	1.0	0.8	n/a	n/a	127.011464834	127.015079975	128.010329962	n/a	10F_AN_O.jpg	09F_AN_O.jpg	09F_AN_O.jpg
128.144332886	1.8671200269999984	face	0.703022956848	1.0	0.8	n/a	n/a	130.011452913	130.015058994	131.01060605	n/a	38M_AN_O.BMP	39M_AN_O.jpg	39M_AN_O.jpg
131.13526988	1.875859021999986	face	0.919245004654	1.0	0.8	n/a	n/a	133.011128902	133.014724016	134.010342836	n/a	FFZ_102.jpg	FFX_130.jpg	FFX_130.jpg
137.047773838	1.9626100059999767	shape	0.737140893936	1.0	0.8	134.09452796	137.009554863	139.010383844	139.014878035	140.009258032	n/a	oval-horizontal.bmp	oval-horizontal.bmp	oval-vertical.bmp
140.118065834	1.8917620180000083	shape	0.68751001358	1.0	0.8	n/a	n/a	142.009827852	142.013417006	143.009073019	n/a	oval-horizontal.bmp	oval-vertical.bmp	oval-vertical.bmp
143.118026018	1.9080998900000168	shape	0.6167781353	1.0	0.8	n/a	n/a	145.026125908	145.029765844	146.025168896	n/a	circle.bmp	circle.bmp	oval-vertical.bmp
146.132068872	1.8926930430000084	shape	0.586194992065	1.0	0.8	n/a	n/a	148.024761915	148.028406858	149.025017977	n/a	circle.bmp	oval-vertical.bmp	oval-vertical.bmp
149.133831024	1.8909659390000115	shape	0.582737922668	1.0	0.8	n/a	n/a	151.024796963	151.028434038	152.025012016	n/a	oval-horizontal.bmp	circle.bmp	circle.bmp
152.134070873	1.8912630079999813	shape	0.612508058548	1.0	0.8	n/a	n/a	154.025333881	154.029197931	155.023947954	n/a	oval-horizontal.bmp	oval-horizontal.bmp	circle.bmp
158.101186991	1.9239480490000176	face	1.16681218147	1.0	0.8	155.108791828	158.024199963	160.02513504	160.03003788	161.023589849	n/a	20M_FE_O.jpg	21M_FE_O.jpg	21M_FE_O.jpg
161.172935009	1.8511929509999727	face	0.835778951645	1.0	0.8	n/a	n/a	163.02412796	163.027757883	164.023838043	n/a	01F_AN_O.jpg	07F_AN_O.jpg	07F_AN_O.jpg
164.15167284	1.8717651369999828	face	0.698127985001	1.0	0.8	n/a	n/a	166.023437977	166.027078867	167.022733927	n/a	FFX_139.jpg	FFZ_102.jpg	FFZ_102.jpg
167.17087388	1.8527660370000087	face	0.770531892776	1.0	0.8	n/a	n/a	169.023639917	169.027253866	170.022994041	n/a	23M_AN_O.jpg	23M_AN_O.jpg	22M_AN_O.jpg
170.150622845	1.8715000150000087	face	0.629516124725	1.0	0.8	n/a	n/a	172.02212286	172.026278019	173.022125006	n/a	MAZ_146.jpg	MAZ_146.jpg	MAX_233.jpg
173.173789978	1.849125861999994	face	0.816986083984	1.0	0.8	n/a	n/a	175.02291584	175.026545048	176.020761013	n/a	15F_FE_O.jpg	15F_FE_O.jpg	16F_FE_O.jpg
179.059026957	1.9627490040000168	shape	0.819912910461	1.0	0.8	176.105479002	179.021528959	181.021775961	181.02631402	182.021028042	n/a	oval-horizontal.bmp	oval-vertical.bmp	oval-vertical.bmp
182.128484964	1.8926410680000167	shape	0.553345918655	1.0	0.8	n/a	n/a	184.021126032	184.025631905	185.021553993	n/a	circle.bmp	oval-vertical.bmp	oval-vertical.bmp
185.133944035	1.8871428960000003	shape	0.797269105911	1.0	0.8	n/a	n/a	187.021086931	187.024976015	188.020396948	n/a	oval-horizontal.bmp	oval-horizontal.bmp	oval-vertical.bmp
188.131541967	1.889939069999997	shape	0.626978874207	1.0	0.8	n/a	n/a	190.021481037	190.025238037	191.020006895	n/a	oval-horizontal.bmp	oval-horizontal.bmp	circle.bmp
191.130071878	1.8907380109999965	shape	0.578727006912	1.0	0.8	n/a	n/a	193.020809889	193.024507046	194.019984007	n/a	circle.bmp	circle.bmp	oval-vertical.bmp
194.132107019	1.887938023000004	shape	0.562567949295	1.0	0.8	n/a	n/a	196.020045042	196.024516821	197.019006014	n/a	oval-horizontal.bmp	circle.bmp	circle.bmp
200.07891202	1.940897941000003	face	0.778584957123	1.0	0.8	197.10747385	200.018941879	202.019809961	202.024904013	203.018801928	n/a	FFX_54.jpg	FFX_54.jpg	FAX_51.jpg
203.158670902	1.8610129359999803	face	0.67067694664	1.0	0.8	n/a	n/a	205.019683838	205.023339033	206.018292904	n/a	40M_FE_O.BMP	41M_FE_O.jpg	41M_FE_O.jpg
206.163838863	1.855081081999998	face	0.628139019012	1.0	0.8	n/a	n/a	208.018919945	208.02286005	209.01816988	n/a	29M_AN_O.jpg	29M_AN_O.jpg	28M_AN_O.jpg
209.146785021	1.871532916999996	face	0.678063154221	1.0	0.8	n/a	n/a	211.018317938	211.022138834	212.018386841	n/a	FFZ_18.jpg	FFZ_29.jpg	FFZ_29.jpg
212.175591946	1.842658996000012	face	1.23701310158	1.0	0.8	n/a	n/a	214.018250942	214.021786928	215.018097878	n/a	19F_AN_O.jpg	19F_AN_O.jpg	09F_AN_O.jpg
215.145831823	1.872166156999981	face	0.727813005447	1.0	0.8	n/a	n/a	217.01799798	217.021591902	218.016953945	n/a	MFZ_132.jpg	MFZ_7.jpg	MFZ_7.jpg
221.053956985	1.9633059509999955	shape	0.803381919861	1.0	0.8	218.107959986	221.016862869	223.017262936	223.021977901	224.016331911	n/a	circle.bmp	oval-vertical.bmp	oval-vertical.bmp
224.130182981	1.886474848000006	shape	0.525432109833	1.0	0.8	n/a	n/a	226.016657829	226.020447016	227.016016006	n/a	oval-horizontal.bmp	oval-horizontal.bmp	circle.bmp
227.127451897	1.8894569870000169	shape	0.572474002838	1.0	0.8	n/a	n/a	229.016908884	229.020541906	230.015744925	n/a	oval-horizontal.bmp	oval-vertical.bmp	oval-vertical.bmp
230.129444838	1.8867101669999893	shape	0.758740901947	1.0	0.8	n/a	n/a	232.016155005	232.020103931	233.015436888	n/a	oval-horizontal.bmp	circle.bmp	circle.bmp
233.129238844	1.886384009999972	shape	0.873701095581	1.0	0.8	n/a	n/a	235.015622854	235.019225836	236.014945984	n/a	oval-horizontal.bmp	oval-horizontal.bmp	oval-vertical.bmp
236.128689051	1.8868658539999783	shape	0.626223087311	1.0	0.8	n/a	n/a	238.015554905	238.019350052	239.015076876	n/a	circle.bmp	circle.bmp	oval-vertical.bmp
242.093801022	1.9207649229999788	face	0.82433795929	0.0	0.8	239.105756044	242.014456987	244.014565945	244.019249916	245.014407873	n/a	20M_FE_O.jpg	21M_FE_O.jpg	21M_FE_O.jpg
245.165071964	1.849283933999999	face	0.723724842072	1.0	0.8	n/a	n/a	247.014355898	247.018069983	248.013705969	n/a	07F_AN_O.jpg	07F_AN_O.jpg	01F_AN_O.jpg
248.149335861	1.864951133999995	face	0.82402586937	1.0	0.8	n/a	n/a	250.014286995	250.017943859	251.013262033	n/a	FFZ_102.jpg	FFZ_102.jpg	FFX_139.jpg
251.169841051	1.8441028600000209	face	0.838193893433	1.0	0.8	n/a	n/a	253.013943911	253.017746925	254.013418913	n/a	22M_AN_O.jpg	23M_AN_O.jpg	23M_AN_O.jpg
254.14347291	1.8697659970000016	face	0.720988035202	1.0	0.8	n/a	n/a	256.013238907	256.01719594	257.012652874	n/a	MAX_233.jpg	MAZ_146.jpg	MAZ_146.jpg
257.169128895	1.8439600470000528	face	0.871009111404	1.0	0.8	n/a	n/a	259.013088942	259.016698837	260.013067007	n/a	15F_FE_O.jpg	15F_FE_O.jpg	16F_FE_O.jpg
263.049499989	1.963531970999952	shape	0.556318044662	1.0	0.8	260.109987974	263.012121916	265.01303196	265.017839909	266.010993004	n/a	oval-horizontal.bmp	oval-horizontal.bmp	oval-vertical.bmp
266.126199961	1.8855519290000304	shape	0.73733496666	1.0	0.8	n/a	n/a	268.01175189	268.015367031	269.011601925	n/a	oval-horizontal.bmp	oval-vertical.bmp	oval-vertical.bmp
269.126302004	1.8853139879999503	shape	0.522130012512	1.0	0.8	n/a	n/a	271.011615992	271.015209913	272.011407852	n/a	circle.bmp	circle.bmp	oval-vertical.bmp
272.128471851	1.882868052000049	shape	0.586652994156	1.0	0.8	n/a	n/a	274.011339903	274.014897823	275.011281013	n/a	circle.bmp	oval-vertical.bmp	oval-vertical.bmp
275.127491951	1.88345789899995	shape	0.620172023773	1.0	0.8	n/a	n/a	277.01094985	277.014452934	278.010443926	n/a	oval-horizontal.bmp	circle.bmp	circle.bmp
278.123436928	1.8871600630000105	shape	0.738311052322	1.0	0.8	n/a	n/a	280.010596991	280.014472008	281.010094881	n/a	oval-horizontal.bmp	oval-horizontal.bmp	circle.bmp
284.069435835	1.940175056000044	face	0.703048944473	1.0	0.8	281.102666855	284.010429859	286.009610891	286.014180899	287.010229826	n/a	FFZ_18.jpg	FAZ_129.jpg	FAZ_129.jpg
287.170547962	1.8397228719999816	face	1.13584899902	1.0	0.8	n/a	n/a	289.010270834	289.013892889	290.010000944	n/a	20M_FE_O.jpg	24M_FE_O.jpg	24M_FE_O.jpg
290.142974854	1.8827390669999888	face	0.719440937042	1.0	0.8	n/a	n/a	292.025713921	292.029722929	293.025141001	n/a	FAZ_23.jpg	FAX_25.jpg	FAX_25.jpg
293.184231043	1.8421878809999723	face	0.702627897263	1.0	0.8	n/a	n/a	295.026418924	295.029975891	296.024940014	n/a	33M_FE_O.jpg	33M_FE_O.jpg	35M_FE_O.jpg
296.186316013	1.8396029479999925	face	0.803416013718	1.0	0.8	n/a	n/a	298.025918961	298.02976203	299.02459693	n/a	01F_AN_O.jpg	01F_AN_O.jpg	02F_AN_O.jpg
299.159011841	1.8662002080000093	face	0.686084032059	1.0	0.8	n/a	n/a	301.025212049	301.028791904	302.024804831	n/a	MFZ_132.jpg	MFZ_132.jpg	MFZ_120.jpg
305.063264847	1.96161198599998	shape	0.636991977692	1.0	0.8	302.123672962	305.024488926	307.024876833	307.029403925	308.02368784	n/a	oval-horizontal.bmp	oval-vertical.bmp	oval-vertical.bmp
308.140987873	1.8829531670000392	shape	0.584192037582	1.0	0.8	n/a	n/a	310.02394104	310.027568817	311.023376942	n/a	circle.bmp	oval-vertical.bmp	oval-vertical.bmp
311.146425009	1.8770749569999907	shape	0.60268497467	1.0	0.8	n/a	n/a	313.023499966	313.027576923	314.023145914	n/a	oval-horizontal.bmp	oval-horizontal.bmp	oval-vertical.bmp
314.141793013	1.881661892000011	shape	0.536581993103	1.0	0.8	n/a	n/a	316.023454905	316.027523041	317.023073912	n/a	oval-horizontal.bmp	oval-horizontal.bmp	circle.bmp
317.142469883	1.880434990000026	shape	0.518916130066	1.0	0.8	n/a	n/a	319.022904873	319.02649498	320.02271986	n/a	circle.bmp	circle.bmp	oval-vertical.bmp
320.139771938	1.8822660449999944	shape	0.750534057617	1.0	0.8	n/a	n/a	322.022037983	322.025670052	323.022145033	n/a	oval-horizontal.bmp	circle.bmp	circle.bmp
326.108973026	1.913250923000021	face	0.804208993912	1.0	0.8	323.121088982	326.02162385	328.022223949	328.026907921	329.021327972	n/a	17F_FE_O.jpg	18F_FE_O.jpg	18F_FE_O.jpg
329.185048819	1.836682081000049	face	0.720305919647	1.0	0.8	n/a	n/a	331.0217309	331.025188923	332.02065587	n/a	42M_AN_O.jpg	43M_AN_O.jpg	43M_AN_O.jpg
332.18687892	1.8352019779999864	face	1.01606082916	1.0	0.8	n/a	n/a	334.022080898	334.025647879	335.020828962	n/a	31M_FE_O.jpg	31M_FE_O.jpg	32M_FE_O.jpg
335.158551931	1.862378121000006	face	0.753315925598	1.0	0.8	n/a	n/a	337.020930052	337.024550915	338.020767927	n/a	FAZ_212.jpg	FFZ_236.jpg	FFZ_236.jpg
338.185708046	1.834878920999984	face	0.685832023621	1.0	0.8	n/a	n/a	340.020586967	340.024456024	341.020215988	n/a	06F_FE_O.jpg	06F_FE_O.jpg	08F_FE_O.jpg
341.160523891	1.8599359989999584	face	0.900323152542	1.0	0.8	n/a	n/a	343.02045989	343.024183989	344.019398928	n/a	MAZ_128.jpg	MAZ_128.jpg	MAX_39.jpg
347.057199001	1.9632439619999784	shape	0.652367115021	1.0	0.8	344.121078014	347.019335032	349.020442963	349.024957895	350.019518852	n/a	circle.bmp	oval-vertical.bmp	oval-vertical.bmp
350.137581825	1.8804981709999995	shape	0.5704600811	1.0	0.8	n/a	n/a	352.018079996	352.021919966	353.01904583	n/a	oval-horizontal.bmp	oval-horizontal.bmp	circle.bmp
353.140804052	1.8784048559999744	shape	0.553149938583	1.0	0.8	n/a	n/a	355.019208908	355.022804976	356.017954826	n/a	oval-horizontal.bmp	oval-vertical.bmp	oval-vertical.bmp
356.139556885	1.879047155000024	shape	0.701313018799	1.0	0.8	n/a	n/a	358.01860404	358.022236824	359.017823935	n/a	oval-horizontal.bmp	circle.bmp	circle.bmp
359.138265848	1.8799521920000188	shape	0.736881971359	1.0	0.8	n/a	n/a	361.01821804	361.021886826	362.017699957	n/a	oval-horizontal.bmp	oval-horizontal.bmp	oval-vertical.bmp
362.140645027	1.8773188590000127	shape	0.636359930038	1.0	0.8	n/a	n/a	364.017963886	364.02192688	365.017452955	n/a	circle.bmp	circle.bmp	oval-vertical.bmp
368.075795889	1.942290067999977	face	0.660557985306	1.0	0.8	365.121951818	368.017688036	370.018085957	370.023192883	371.016657829	n/a	FFZ_18.jpg	FAZ_129.jpg	FAZ_129.jpg
371.178254843	1.838896990000024	face	1.11124205589	1.0	0.8	n/a	n/a	373.017151833	373.020807981	374.016341925	n/a	20M_FE_O.jpg	24M_FE_O.jpg	24M_FE_O.jpg
374.158005953	1.858836889000031	face	0.61150598526	1.0	0.8	n/a	n/a	376.016842842	376.020925999	377.016410828	n/a	FAZ_23.jpg	FAX_25.jpg	FAX_25.jpg
377.181516886	1.835314988999983	face	0.525187969208	1.0	0.8	n/a	n/a	379.016831875	379.020731926	380.016325951	n/a	33M_FE_O.jpg	33M_FE_O.jpg	35M_FE_O.jpg
380.186164856	1.8304071430000024	face	0.655174016953	1.0	0.8	n/a	n/a	382.016571999	382.020234823	383.015161991	n/a	01F_AN_O.jpg	01F_AN_O.jpg	02F_AN_O.jpg
383.155272007	1.861387967999974	face	0.587258815765	1.0	0.8	n/a	n/a	385.016659975	385.020341873	386.015357971	394.414031029	MFZ_132.jpg	MFZ_132.jpg	MFZ_120.jpg
