onset	duration	trial_type	response_time	accuracy_binarized	tr_seconds	cueStartTime	cueEndTime	trialEndTime	fixStartTime	fixEndTime	runEndTime	stimLeft	stimTop	stimRight
11.0675218105	1.9693381786999995	shape	1.22186112404	0.0	0.8	8.02999186516	11.0207569599	13.0368599892	13.0416150093	14.0355398655	n/a	oval-horizontal.bmp	oval-horizontal.bmp	oval-vertical.bmp
14.1469128132	1.8895761966999984	shape	0.955301046371	1.0	0.8	n/a	n/a	16.0364890099	16.0400547981	17.0361838341	n/a	oval-horizontal.bmp	oval-vertical.bmp	oval-vertical.bmp
17.1347007751	1.9017441272999989	shape	0.788640022278	1.0	0.8	n/a	n/a	19.0364449024	19.0400729179	20.0355198383	n/a	circle.bmp	circle.bmp	oval-vertical.bmp
20.1336419582	1.9022529126000016	shape	0.837495803833	1.0	0.8	n/a	n/a	22.0358948708	22.0395059586	23.0351858139	n/a	circle.bmp	oval-vertical.bmp	oval-vertical.bmp
23.1327869892	1.9025499821000016	shape	0.686347961426	1.0	0.8	n/a	n/a	25.0353369713	25.0389938354	26.0348169804	n/a	oval-horizontal.bmp	circle.bmp	circle.bmp
26.1358978748	1.8994131089	shape	0.835495948792	1.0	0.8	n/a	n/a	28.0353109837	28.0388178825	29.034473896	n/a	oval-horizontal.bmp	oval-horizontal.bmp	circle.bmp
32.097304821	1.9380309581999955	face	0.787456989288	1.0	0.8	29.1088488102	32.0342288017	34.0353357792	34.0398499966	35.0343229771	n/a	FAZ_23.jpg	FAZ_23.jpg	FAX_43.jpg
35.175265789	1.859521150599996	face	0.804879903793	1.0	0.8	n/a	n/a	37.0347869396	37.0384237766	38.0336368084	n/a	26M_FE_O.jpg	26M_FE_O.jpg	27M_FE_O.BMP
38.1548688412	1.8791980743	face	0.869545936584	1.0	0.8	n/a	n/a	40.0340669155	40.0379738808	41.0328350067	n/a	MFX_16.jpg	MFZ_50.jpg	MFZ_50.jpg
41.1884219646	1.8444700242	face	1.06988596916	1.0	0.8	n/a	n/a	43.0328919888	43.0366899967	44.0320618153	n/a	09F_AN_O.jpg	09F_AN_O.jpg	10F_AN_O.jpg
44.1684718132	1.8643779754999985	face	0.819699764252	1.0	0.8	n/a	n/a	46.0328497887	46.0364768505	47.0321059227	n/a	38M_AN_O.BMP	39M_AN_O.jpg	39M_AN_O.jpg
47.1513669491	1.881614923499996	face	0.86877989769	1.0	0.8	n/a	n/a	49.0329818726	49.0366008282	50.0321209431	n/a	FFZ_102.jpg	FFX_130.jpg	FFX_130.jpg
53.0687179565	1.963909864499996	shape	0.886007070541	1.0	0.8	50.1068398952	53.0318889618	55.032627821	55.0373699665	56.0320389271	n/a	oval-horizontal.bmp	oval-vertical.bmp	oval-vertical.bmp
56.1317179203	1.9002420902000023	shape	0.553081035614	1.0	0.8	n/a	n/a	58.0319600105	58.0353999138	59.0312209129	n/a	circle.bmp	oval-vertical.bmp	oval-vertical.bmp
59.1326408386	1.8987650872000048	shape	1.02009296417	1.0	0.8	n/a	n/a	61.0314059258	61.0349969864	62.030810833	n/a	oval-horizontal.bmp	oval-horizontal.bmp	oval-vertical.bmp
62.1312508583	1.8992741108000004	shape	0.836045980453	1.0	0.8	n/a	n/a	64.0305249691	64.0345959663	65.030507803	n/a	oval-horizontal.bmp	oval-horizontal.bmp	circle.bmp
65.1296849251	1.9011609554000013	shape	1.07103085518	1.0	0.8	n/a	n/a	67.0308458805	67.034637928	68.0299408436	n/a	circle.bmp	circle.bmp	oval-vertical.bmp
68.130936861	1.8996229172000056	shape	0.836141109467	1.0	0.8	n/a	n/a	70.0305597782	70.0343527794	71.0298318863	n/a	oval-horizontal.bmp	circle.bmp	circle.bmp
74.117825985	1.9120578765000005	face	0.953302145004	1.0	0.8	71.1060328484	74.0293447971	76.0298838615	76.0348339081	77.0292029381	n/a	03F_FE_O.jpg	05F_FE_O.jpg	05F_FE_O.jpg
77.1515598297	1.8778440951999893	face	0.787045001984	1.0	0.8	n/a	n/a	79.0294039249	79.0330688953	80.0286209583	n/a	FAZ_32.jpg	FAZ_32.jpg	FAX_45.jpg
80.1526827812	1.876854181300004	face	0.820199966431	1.0	0.8	n/a	n/a	82.0295369625	82.0334320068	83.0284378529	n/a	MAZ_128.jpg	MAZ_101.jpg	MAZ_101.jpg
83.181344986	1.8475759029000045	face	0.769867897034	1.0	0.8	n/a	n/a	85.0289208889	85.0325789452	86.0280528069	n/a	11F_AN_O.jpg	11F_AN_O.jpg	12F_AN_O.jpg
86.1698029041	1.8588891030000096	face	0.702996015549	1.0	0.8	n/a	n/a	88.0286920071	88.0328068733	89.0276329517	n/a	26M_FE_O.jpg	33M_FE_O.jpg	33M_FE_O.jpg
89.150177002	1.8778729438	face	0.670795202255	1.0	0.8	n/a	n/a	91.0280499458	91.0316619873	92.0276408195	n/a	MFZ_132.jpg	MFZ_132.jpg	MFZ_120.jpg
95.065694809	1.9617581367000128	shape	0.853016853333	1.0	0.8	92.1056828499	95.0269827843	97.0274529457	97.0322418213	98.0269758701	n/a	circle.bmp	oval-vertical.bmp	oval-vertical.bmp
98.1298899651	1.896951913899997	shape	0.669865131378	1.0	0.8	n/a	n/a	100.026841879	100.03083086	101.02646184	n/a	oval-horizontal.bmp	oval-horizontal.bmp	circle.bmp
101.129104853	1.8978250020000047	shape	1.16991591454	1.0	0.8	n/a	n/a	103.026929855	103.030558825	104.025671959	n/a	oval-horizontal.bmp	oval-vertical.bmp	oval-vertical.bmp
104.13120985	1.8951830869999924	shape	0.770380020142	1.0	0.8	n/a	n/a	106.026392937	106.030074835	107.026285887	n/a	oval-horizontal.bmp	circle.bmp	circle.bmp
107.132082939	1.8937308790000031	shape	1.01844096184	1.0	0.8	n/a	n/a	109.025813818	109.029689789	110.024871826	n/a	oval-horizontal.bmp	oval-horizontal.bmp	oval-vertical.bmp
110.1271348	1.89883399	shape	1.65353894234	1.0	0.8	n/a	n/a	112.02596879	112.029650927	113.025259972	n/a	circle.bmp	circle.bmp	oval-vertical.bmp
116.078994989	1.9467618470000048	face	0.820286035538	1.0	0.8	113.104823828	116.024266958	118.025756836	118.03043294	119.024386883	n/a	FAZ_23.jpg	FAZ_23.jpg	FAX_43.jpg
119.15652895	1.8684380050000016	face	0.62895488739	1.0	0.8	n/a	n/a	121.024966955	121.028786898	122.024274826	n/a	26M_FE_O.jpg	26M_FE_O.jpg	27M_FE_O.BMP
122.14397788	1.8796999460000023	face	0.587427854538	1.0	0.8	n/a	n/a	124.023677826	124.027470827	125.024024963	n/a	MFZ_50.jpg	MFZ_50.jpg	MFX_16.jpg
125.168291807	1.856894969999999	face	0.678723096848	1.0	0.8	n/a	n/a	127.025186777	127.029192924	128.023262978	n/a	10F_AN_O.jpg	09F_AN_O.jpg	09F_AN_O.jpg
128.157919884	1.875112056000006	face	0.619238853455	1.0	0.8	n/a	n/a	130.03303194	130.036680937	131.023056984	n/a	38M_AN_O.BMP	39M_AN_O.jpg	39M_AN_O.jpg
131.149496794	1.8746891020000191	face	0.842569828033	1.0	0.8	n/a	n/a	133.024185896	133.027881861	134.022798777	n/a	FFZ_102.jpg	FFX_130.jpg	FFX_130.jpg
137.05943799	1.9634239680000007	shape	1.4189991951	1.0	0.8	134.105419874	137.022157907	139.022861958	139.027485847	140.022581816	n/a	oval-horizontal.bmp	oval-horizontal.bmp	oval-vertical.bmp
140.128109932	1.894253015000004	shape	0.76850605011	1.0	0.8	n/a	n/a	142.022362947	142.02597785	143.022349834	n/a	oval-horizontal.bmp	oval-vertical.bmp	oval-vertical.bmp
143.127888918	1.8941709990000104	shape	0.719755172729	1.0	0.8	n/a	n/a	145.022059917	145.025746822	146.021478891	n/a	circle.bmp	circle.bmp	oval-vertical.bmp
146.130363941	1.907806873999988	shape	0.552984952927	1.0	0.8	n/a	n/a	148.038170815	148.041770935	149.021355867	n/a	circle.bmp	oval-vertical.bmp	oval-vertical.bmp
149.128369808	1.8930239679999945	shape	0.686202049255	1.0	0.8	n/a	n/a	151.021393776	151.025301933	152.021449804	n/a	oval-horizontal.bmp	circle.bmp	circle.bmp
152.126152992	1.8950088030000245	shape	0.65415096283	1.0	0.8	n/a	n/a	154.021161795	154.024779797	155.020837784	n/a	oval-horizontal.bmp	oval-horizontal.bmp	circle.bmp
158.124642849	1.912755965999992	face	1.3516740799	1.0	0.8	155.105273962	158.036815882	160.037398815	160.04203701	161.036253929	n/a	20M_FE_O.jpg	21M_FE_O.jpg	21M_FE_O.jpg
161.191387892	1.829673052000004	face	0.652547836304	1.0	0.8	n/a	n/a	163.021060944	163.0246768	164.020574808	n/a	01F_AN_O.jpg	07F_AN_O.jpg	07F_AN_O.jpg
164.145498991	1.890569924999994	face	0.772032022476	1.0	0.8	n/a	n/a	166.036068916	166.039711952	167.035811901	n/a	FFX_139.jpg	FFZ_102.jpg	FFZ_102.jpg
167.18717289	1.8489480020000144	face	0.792278766632	1.0	0.8	n/a	n/a	169.036120892	169.039824963	170.03529191	n/a	23M_AN_O.jpg	23M_AN_O.jpg	22M_AN_O.jpg
170.163909912	1.8722140790000024	face	0.673357963562	1.0	0.8	n/a	n/a	172.036123991	172.039762974	173.035456896	n/a	MAZ_146.jpg	MAZ_146.jpg	MAX_233.jpg
173.188610792	1.8470511440000053	face	0.982026338578	0.0	0.8	n/a	n/a	175.035661936	175.039286852	176.035187006	n/a	15F_FE_O.jpg	15F_FE_O.jpg	16F_FE_O.jpg
179.071643829	1.9632329939999809	shape	0.872986078262	1.0	0.8	176.119915009	179.034365892	181.034876823	181.039495945	182.034410954	n/a	oval-horizontal.bmp	oval-vertical.bmp	oval-vertical.bmp
182.143708944	1.8905839920000176	shape	0.539808988571	1.0	0.8	n/a	n/a	184.034292936	184.038184881	185.034053802	n/a	circle.bmp	oval-vertical.bmp	oval-vertical.bmp
185.145354986	1.889073848999999	shape	0.505970954895	0.0	0.8	n/a	n/a	187.034428835	187.038031816	188.033780813	n/a	oval-horizontal.bmp	oval-horizontal.bmp	oval-vertical.bmp
188.145053864	1.889142989999982	shape	0.604876995087	1.0	0.8	n/a	n/a	190.034196854	190.03786087	191.032929897	n/a	oval-horizontal.bmp	oval-horizontal.bmp	circle.bmp
191.14270401	1.8905417920000216	shape	0.837658166885	1.0	0.8	n/a	n/a	193.033245802	193.03689599	194.032860994	n/a	circle.bmp	circle.bmp	oval-vertical.bmp
194.141953945	1.8907709119999936	shape	0.837202072144	1.0	0.8	n/a	n/a	196.032724857	196.036331892	197.03220582	n/a	oval-horizontal.bmp	circle.bmp	circle.bmp
200.090774775	1.9422810069999912	face	0.753696918488	1.0	0.8	197.12011981	200.032025814	202.033055782	202.037636995	203.031807899	n/a	FFX_54.jpg	FFX_54.jpg	FAX_51.jpg
203.178079844	1.854108095000015	face	0.735970973969	1.0	0.8	n/a	n/a	205.032187939	205.03578496	206.031637907	n/a	40M_FE_O.BMP	41M_FE_O.jpg	41M_FE_O.jpg
206.184534788	1.84752512	face	0.587709188461	1.0	0.8	n/a	n/a	208.032059908	208.035712004	209.031130791	n/a	29M_AN_O.jpg	29M_AN_O.jpg	28M_AN_O.jpg
209.157414913	1.8745000360000008	face	0.667795181274	1.0	0.8	n/a	n/a	211.031914949	211.035838842	212.031202793	n/a	FFZ_18.jpg	FFZ_29.jpg	FFZ_29.jpg
212.181946993	1.8487458230000016	face	0.670526027679	1.0	0.8	n/a	n/a	214.030692816	214.034552813	215.029829979	n/a	19F_AN_O.jpg	19F_AN_O.jpg	09F_AN_O.jpg
215.163028955	1.8674089910000191	face	0.684875011444	1.0	0.8	n/a	n/a	217.030437946	217.034087896	218.029754877	n/a	MFZ_132.jpg	MFZ_7.jpg	MFZ_7.jpg
221.066384792	1.963983058999986	shape	0.885864019394	1.0	0.8	218.119916916	221.029723883	223.030367851	223.035055876	224.029609919	n/a	circle.bmp	oval-vertical.bmp	oval-vertical.bmp
224.142414808	1.887264966999993	shape	0.686365127563	1.0	0.8	n/a	n/a	226.029679775	226.033624887	227.029505968	n/a	oval-horizontal.bmp	oval-horizontal.bmp	circle.bmp
227.140858889	1.888309955000011	shape	0.68675494194	1.0	0.8	n/a	n/a	229.029168844	229.032759905	230.028824806	n/a	oval-horizontal.bmp	oval-vertical.bmp	oval-vertical.bmp
230.141498804	1.888107061	shape	0.632910966873	1.0	0.8	n/a	n/a	232.029605865	232.033661842	233.029008865	n/a	oval-horizontal.bmp	circle.bmp	circle.bmp
233.143133879	1.885421990999987	shape	1.00287008286	1.0	0.8	n/a	n/a	235.02855587	235.0320158	236.027956963	n/a	oval-horizontal.bmp	oval-horizontal.bmp	oval-vertical.bmp
236.14258194	1.8856608859999824	shape	0.986748218536	1.0	0.8	n/a	n/a	238.028242826	238.031960011	239.027674913	n/a	circle.bmp	circle.bmp	oval-vertical.bmp
242.102536917	1.925215006000002	face	1.31774997711	1.0	0.8	239.117184877	242.027283907	244.027751923	244.032719851	245.02698493	n/a	20M_FE_O.jpg	21M_FE_O.jpg	21M_FE_O.jpg
245.189380884	1.838917017	face	0.76868391037	1.0	0.8	n/a	n/a	247.028297901	247.031981945	248.027267933	n/a	07F_AN_O.jpg	07F_AN_O.jpg	01F_AN_O.jpg
248.155363798	1.8716561800000024	face	0.967625141144	1.0	0.8	n/a	n/a	250.027019978	250.030654907	251.026473999	n/a	FFZ_102.jpg	FFZ_102.jpg	FFX_139.jpg
251.176553011	1.8499169349999816	face	0.75242805481	1.0	0.8	n/a	n/a	253.026469946	253.030158997	254.025998831	n/a	22M_AN_O.jpg	23M_AN_O.jpg	23M_AN_O.jpg
254.158980846	1.867534161000009	face	0.753171920776	1.0	0.8	n/a	n/a	256.026515007	256.030581951	257.025619984	n/a	MAX_233.jpg	MAZ_146.jpg	MAZ_146.jpg
257.181707859	1.844628095999952	face	1.02015995979	1.0	0.8	n/a	n/a	259.026335955	259.030015945	260.025272846	n/a	15F_FE_O.jpg	15F_FE_O.jpg	16F_FE_O.jpg
263.062184811	1.963173150999978	shape	0.921975851059	1.0	0.8	260.120730877	263.025326967	265.025357962	265.029909849	266.024533987	n/a	oval-horizontal.bmp	oval-horizontal.bmp	oval-vertical.bmp
266.137287855	1.888160943999992	shape	0.664207935333	1.0	0.8	n/a	n/a	268.025448799	268.029453993	269.024315834	n/a	oval-horizontal.bmp	oval-vertical.bmp	oval-vertical.bmp
269.138951778	1.885967017000041	shape	0.614128112793	1.0	0.8	n/a	n/a	271.024918795	271.028528929	272.023743868	n/a	circle.bmp	circle.bmp	oval-vertical.bmp
272.140456915	1.883795023000005	shape	0.601758956909	1.0	0.8	n/a	n/a	274.024251938	274.027707815	275.023920774	n/a	circle.bmp	oval-vertical.bmp	oval-vertical.bmp
275.139666796	1.884302139000056	shape	0.820062160492	1.0	0.8	n/a	n/a	277.023968935	277.027763844	278.023387909	n/a	oval-horizontal.bmp	circle.bmp	circle.bmp
278.138834	1.8840558530000069	shape	0.919808149338	1.0	0.8	n/a	n/a	280.022889853	280.027170897	281.023600817	n/a	oval-horizontal.bmp	oval-horizontal.bmp	circle.bmp
284.081489801	1.9424061779999988	face	0.811766862869	1.0	0.8	281.121096849	284.022533894	286.023895979	286.028489828	287.022862911	n/a	FFZ_18.jpg	FAZ_129.jpg	FAZ_129.jpg
287.184071779	1.83877301199999	face	0.89595913887	1.0	0.8	n/a	n/a	289.022844791	289.026505947	290.022170782	n/a	20M_FE_O.jpg	24M_FE_O.jpg	24M_FE_O.jpg
290.159820795	1.862595081000052	face	0.653256893158	1.0	0.8	n/a	n/a	292.022415876	292.02657485	293.021775007	n/a	FAZ_23.jpg	FAX_25.jpg	FAX_25.jpg
293.187078953	1.835033893000002	face	0.726524114609	1.0	0.8	n/a	n/a	295.022112846	295.025794983	296.021450996	n/a	33M_FE_O.jpg	33M_FE_O.jpg	35M_FE_O.jpg
296.186863899	1.8352479939999853	face	0.661097049713	1.0	0.8	n/a	n/a	298.022111893	298.025844812	299.020971775	n/a	01F_AN_O.jpg	01F_AN_O.jpg	02F_AN_O.jpg
299.156998873	1.864470004999987	face	0.60237288475	1.0	0.8	n/a	n/a	301.021468878	301.025120974	302.021169901	n/a	MFZ_132.jpg	MFZ_132.jpg	MFZ_120.jpg
305.059895992	1.96127295499997	shape	0.719815969467	1.0	0.8	302.120718956	305.020763874	307.021168947	307.025882959	308.020697832	n/a	oval-horizontal.bmp	oval-vertical.bmp	oval-vertical.bmp
308.140531778	1.896490096999969	shape	0.503494977951	1.0	0.8	n/a	n/a	310.037021875	310.040704966	311.036417007	n/a	circle.bmp	oval-vertical.bmp	oval-vertical.bmp
311.154583931	1.8759799000000044	shape	0.769877910614	1.0	0.8	n/a	n/a	313.030563831	313.034179926	314.035409927	n/a	oval-horizontal.bmp	oval-horizontal.bmp	oval-vertical.bmp
314.153431892	1.87672209799996	shape	0.587870121002	1.0	0.8	n/a	n/a	316.03015399	316.033823967	317.029842854	n/a	oval-horizontal.bmp	oval-horizontal.bmp	circle.bmp
317.146596909	1.8836569780000327	shape	0.753829956055	1.0	0.8	n/a	n/a	319.030253887	319.034077883	320.029903889	n/a	circle.bmp	circle.bmp	oval-vertical.bmp
320.150295973	1.8799788949999647	shape	0.902872085571	1.0	0.8	n/a	n/a	322.030274868	322.03371191	323.029732943	n/a	oval-horizontal.bmp	circle.bmp	circle.bmp
326.117284775	1.9132761950000368	face	1.68642306328	1.0	0.8	323.126488924	326.034732819	328.03056097	328.035125971	329.034080982	n/a	17F_FE_O.jpg	18F_FE_O.jpg	18F_FE_O.jpg
329.193904877	1.8407590389999768	face	1.09052586555	1.0	0.8	n/a	n/a	331.034663916	331.038315773	332.03441596	n/a	42M_AN_O.jpg	43M_AN_O.jpg	43M_AN_O.jpg
332.194292784	1.840177058999984	face	0.723891019821	1.0	0.8	n/a	n/a	334.034469843	334.038093805	335.033483982	n/a	31M_FE_O.jpg	31M_FE_O.jpg	32M_FE_O.jpg
335.1773839	1.8573150629999875	face	0.672329187393	1.0	0.8	n/a	n/a	337.034698963	337.038361788	338.03441	n/a	FAZ_212.jpg	FFZ_236.jpg	FFZ_236.jpg
338.205716848	1.828089953000017	face	0.666314840317	1.0	0.8	n/a	n/a	340.033806801	340.037558794	341.032755852	n/a	06F_FE_O.jpg	06F_FE_O.jpg	08F_FE_O.jpg
341.169643879	1.863923073000024	face	0.723818063736	1.0	0.8	n/a	n/a	343.033566952	343.037193775	344.032536983	n/a	MAZ_128.jpg	MAZ_128.jpg	MAX_39.jpg
347.070679903	1.9619009500000288	shape	0.640146017075	1.0	0.8	344.131982803	347.032674789	349.032580853	349.037146807	350.032001972	n/a	circle.bmp	oval-vertical.bmp	oval-vertical.bmp
350.155017853	1.877180098999986	shape	0.719752073288	1.0	0.8	n/a	n/a	352.032197952	352.03579092	353.031735897	n/a	oval-horizontal.bmp	oval-horizontal.bmp	circle.bmp
353.150921822	1.880854129	shape	0.606765031815	1.0	0.8	n/a	n/a	355.031775951	355.035676956	356.031230927	n/a	oval-horizontal.bmp	oval-vertical.bmp	oval-vertical.bmp
356.150904894	1.8805689810000104	shape	0.586124897003	1.0	0.8	n/a	n/a	358.031473875	358.03507781	359.030888796	n/a	oval-horizontal.bmp	circle.bmp	circle.bmp
359.154419899	1.8769049640000048	shape	0.788722991943	0.0	0.8	n/a	n/a	361.031324863	361.03497386	362.030595779	n/a	oval-horizontal.bmp	oval-horizontal.bmp	oval-vertical.bmp
362.15022397	1.880349874999979	shape	0.720624923706	1.0	0.8	n/a	n/a	364.030573845	364.034205914	365.030328989	n/a	circle.bmp	circle.bmp	oval-vertical.bmp
368.084471941	1.946153879000008	face	0.688844919205	1.0	0.8	365.130787849	368.029971838	370.03062582	370.035120964	371.02981782	n/a	FFZ_18.jpg	FAZ_129.jpg	FAZ_129.jpg
371.189213991	1.8414478300000496	face	0.91774892807	1.0	0.8	n/a	n/a	373.030661821	373.034369946	374.029013872	n/a	20M_FE_O.jpg	24M_FE_O.jpg	24M_FE_O.jpg
374.168266773	1.8614361289999688	face	0.953580856323	1.0	0.8	n/a	n/a	376.029702902	376.033326864	377.028934002	n/a	FAZ_23.jpg	FAX_25.jpg	FAX_25.jpg
377.190192938	1.8392398359999904	face	0.619803905487	0.0	0.8	n/a	n/a	379.029432774	379.033092976	380.028716803	n/a	33M_FE_O.jpg	33M_FE_O.jpg	35M_FE_O.jpg
380.196493864	1.8331921100000272	face	1.17000508308	1.0	0.8	n/a	n/a	382.029685974	382.033603907	383.028901815	n/a	01F_AN_O.jpg	01F_AN_O.jpg	02F_AN_O.jpg
383.165791988	1.8623368739999933	face	0.686308145523	1.0	0.8	n/a	n/a	385.028128862	385.031866789	386.027499914	394.426995993	MFZ_132.jpg	MFZ_132.jpg	MFZ_120.jpg
