onset	duration	trial_type	response_time	accuracy_binarized	tr_seconds	cueStartTime	cueEndTime	trialEndTime	fixStartTime	fixEndTime	runEndTime	stimLeft	stimTop	stimRight
11.0605959892	1.954130172800001	shape	1.29067420959	1.0	0.8	8.02361702919	11.0142271519	13.014726162	13.0193281174	14.0140001774	n/a	oval-horizontal.bmp	oval-horizontal.bmp	oval-vertical.bmp
14.1255941391	1.888306856199998	shape	0.904263019562	1.0	0.8	n/a	n/a	16.0139009953	16.017594099	17.013684988	n/a	oval-horizontal.bmp	oval-vertical.bmp	oval-vertical.bmp
17.1162099838	1.8978462219	shape	0.889170885086	1.0	0.8	n/a	n/a	19.0140562057	19.0176501274	20.0132250786	n/a	circle.bmp	circle.bmp	oval-vertical.bmp
20.110019207	1.903776884100001	shape	0.674068927765	1.0	0.8	n/a	n/a	22.0137960911	22.0173790455	23.0129950047	n/a	circle.bmp	oval-vertical.bmp	oval-vertical.bmp
23.1131219864	1.9165170193000023	shape	0.738882780075	1.0	0.8	n/a	n/a	25.0296390057	25.0330560207	26.0130090714	n/a	oval-horizontal.bmp	circle.bmp	circle.bmp
26.1124711037	1.9166440963000009	shape	0.823173999786	1.0	0.8	n/a	n/a	28.0291152	28.0332081318	29.0288829803	n/a	oval-horizontal.bmp	oval-horizontal.bmp	circle.bmp
32.0950942039	1.9341359139000005	face	0.78848695755	1.0	0.8	29.1070849895	32.0292329788	34.0292301178	34.0336470604	35.0282812119	n/a	FAZ_23.jpg	FAZ_23.jpg	FAX_43.jpg
35.1687951088	1.8599750996	face	1.08631491661	1.0	0.8	n/a	n/a	37.0287702084	37.0323321819	38.027862072	n/a	26M_FE_O.jpg	26M_FE_O.jpg	27M_FE_O.BMP
38.1485521793	1.8795189858000043	face	1.06827306747	1.0	0.8	n/a	n/a	40.0280711651	40.0320301056	41.0273451805	n/a	MFX_16.jpg	MFZ_50.jpg	MFZ_50.jpg
41.1790311337	1.849092006600003	face	0.987156152725	1.0	0.8	n/a	n/a	43.0281231403	43.0318131447	44.0264091492	n/a	09F_AN_O.jpg	09F_AN_O.jpg	10F_AN_O.jpg
44.1597690582	1.8677480221000025	face	0.903488874435	1.0	0.8	n/a	n/a	46.0275170803	46.0313651562	47.0273320675	n/a	38M_AN_O.BMP	39M_AN_O.jpg	39M_AN_O.jpg
47.1521000862	1.8754150867999968	face	0.953368902206	1.0	0.8	n/a	n/a	49.027515173	49.0312612057	50.026581049	n/a	FFZ_102.jpg	FFX_130.jpg	FFX_130.jpg
53.0615119934	1.965586185499994	shape	0.619452953339	1.0	0.8	50.1048631668	53.0251011848	55.0270981789	55.0316720009	56.025395155	n/a	oval-horizontal.bmp	oval-vertical.bmp	oval-vertical.bmp
56.1278910637	1.897807121300005	shape	0.603669166565	1.0	0.8	n/a	n/a	58.025698185	58.0293931961	59.0251851082	n/a	circle.bmp	oval-vertical.bmp	oval-vertical.bmp
59.1252250671	1.900445938100006	shape	0.519927024841	0.0	0.8	n/a	n/a	61.0256710052	61.0294151306	62.0252242088	n/a	oval-horizontal.bmp	oval-horizontal.bmp	oval-vertical.bmp
62.1245861053	1.899940013900008	shape	0.720233917236	1.0	0.8	n/a	n/a	64.0245261192	64.0282711983	65.024777174	n/a	oval-horizontal.bmp	oval-horizontal.bmp	circle.bmp
65.127835989	1.897278070399992	shape	0.936249017715	1.0	0.8	n/a	n/a	67.0251140594	67.0287230015	68.0243589878	n/a	circle.bmp	circle.bmp	oval-vertical.bmp
68.1239070892	1.9011061191999945	shape	0.821413993835	1.0	0.8	n/a	n/a	70.0250132084	70.0286440849	71.0244700909	n/a	oval-horizontal.bmp	circle.bmp	circle.bmp
74.1078879833	1.916268110299996	face	1.15077805519	1.0	0.8	71.1060190201	74.0237541199	76.0241560936	76.0288321972	77.0236670971	n/a	03F_FE_O.jpg	05F_FE_O.jpg	05F_FE_O.jpg
77.1450111866	1.878866910900001	face	0.970118999481	1.0	0.8	n/a	n/a	79.0238780975	79.0274569988	80.0235421658	n/a	FAZ_32.jpg	FAZ_32.jpg	FAX_45.jpg
80.1501710415	1.8742070197999965	face	1.13444113731	1.0	0.8	n/a	n/a	82.0243780613	82.0279901028	83.0234811306	n/a	MAZ_128.jpg	MAZ_101.jpg	MAZ_101.jpg
83.1696491241	1.8537099361999907	face	0.853819847107	1.0	0.8	n/a	n/a	85.0233590603	85.0271852016	86.0224831104	n/a	11F_AN_O.jpg	11F_AN_O.jpg	12F_AN_O.jpg
86.1682071686	1.8540089130000013	face	1.08707714081	1.0	0.8	n/a	n/a	88.0222160816	88.0263850689	89.0221121311	n/a	26M_FE_O.jpg	33M_FE_O.jpg	33M_FE_O.jpg
89.1460599899	1.8764111996	face	0.920300006866	1.0	0.8	n/a	n/a	91.0224711895	91.0260241032	92.0214221478	n/a	MFZ_132.jpg	MFZ_132.jpg	MFZ_120.jpg
95.0589740276	1.963027000499992	shape	0.518851995468	1.0	0.8	92.0996861458	95.0215201378	97.0220010281	97.0265421867	98.0212299824	n/a	circle.bmp	oval-vertical.bmp	oval-vertical.bmp
98.1241412163	1.896922826699992	shape	0.570322990417	1.0	0.8	n/a	n/a	100.021064043	100.025353193	101.021178007	n/a	oval-horizontal.bmp	oval-horizontal.bmp	circle.bmp
101.123611212	1.8973209859999969	shape	0.820924043655	1.0	0.8	n/a	n/a	103.020932198	103.024494171	104.020205021	n/a	oval-horizontal.bmp	oval-vertical.bmp	oval-vertical.bmp
104.128395081	1.8924610610000057	shape	0.703131198883	1.0	0.8	n/a	n/a	106.020856142	106.024456024	107.019904137	n/a	oval-horizontal.bmp	circle.bmp	circle.bmp
107.121778011	1.8985450269999973	shape	0.535948991776	1.0	0.8	n/a	n/a	109.020323038	109.023913145	110.020302057	n/a	oval-horizontal.bmp	oval-horizontal.bmp	oval-vertical.bmp
110.125990152	1.894273996999999	shape	0.704075098038	1.0	0.8	n/a	n/a	112.020264149	112.024041176	113.019734144	n/a	circle.bmp	circle.bmp	oval-vertical.bmp
116.079217196	1.940448998999997	face	0.614070177078	1.0	0.8	113.10048604	116.019048214	118.019666195	118.024166107	119.019028187	n/a	FAZ_23.jpg	FAZ_23.jpg	FAX_43.jpg
119.158228159	1.861208915999996	face	0.604111194611	1.0	0.8	n/a	n/a	121.019437075	121.023344994	122.01881218	n/a	26M_FE_O.jpg	26M_FE_O.jpg	27M_FE_O.BMP
122.142487049	1.883378983	face	0.691479206085	1.0	0.8	n/a	n/a	124.025866032	124.029550076	125.027737141	n/a	MFZ_50.jpg	MFZ_50.jpg	MFX_16.jpg
125.180436134	1.838661908999996	face	1.21287488937	1.0	0.8	n/a	n/a	127.019098043	127.023003101	128.018616199	n/a	10F_AN_O.jpg	09F_AN_O.jpg	09F_AN_O.jpg
128.151478052	1.8668601510000256	face	0.771184921265	1.0	0.8	n/a	n/a	130.018338203	130.021968126	131.017329216	n/a	38M_AN_O.BMP	39M_AN_O.jpg	39M_AN_O.jpg
131.143635035	1.874992132000017	face	0.960620164871	1.0	0.8	n/a	n/a	133.018627167	133.022562027	134.017194033	n/a	FFZ_102.jpg	FFX_130.jpg	FFX_130.jpg
137.054687023	1.962454080999976	shape	0.652759075165	0.0	0.8	134.101204157	137.017484188	139.017141104	139.021848202	140.016708136	n/a	oval-horizontal.bmp	oval-horizontal.bmp	oval-vertical.bmp
140.121235132	1.8956720829999936	shape	0.48650598526	1.0	0.8	n/a	n/a	142.016907215	142.020522118	143.016604185	n/a	oval-horizontal.bmp	oval-vertical.bmp	oval-vertical.bmp
143.12588501	1.8904960149999963	shape	1.0951989889145	0.0	0.8	n/a	n/a	145.016381025	145.019815207	146.01603508	n/a	circle.bmp	circle.bmp	oval-vertical.bmp
146.123175144	1.892812967000026	shape	1.05356287956	1.0	0.8	n/a	n/a	148.015988111	148.019843102	149.01535511	n/a	circle.bmp	oval-vertical.bmp	oval-vertical.bmp
149.122074127	1.894268036	shape	0.586760044098	1.0	0.8	n/a	n/a	151.016342163	151.019976139	152.015586138	n/a	oval-horizontal.bmp	circle.bmp	circle.bmp
152.128201008	1.8869640830000087	shape	0.607141017914	1.0	0.8	n/a	n/a	154.015165091	154.01889205	155.014503002	n/a	oval-horizontal.bmp	oval-horizontal.bmp	circle.bmp
158.093620062	1.921762942999976	face	1.34304094315	1.0	0.8	155.098944187	158.015185118	160.015383005	160.020516157	161.014194012	n/a	20M_FE_O.jpg	21M_FE_O.jpg	21M_FE_O.jpg
161.172574997	1.842573165999994	face	0.990471839905	1.0	0.8	n/a	n/a	163.015148163	163.018733025	164.013951063	n/a	01F_AN_O.jpg	07F_AN_O.jpg	07F_AN_O.jpg
164.140807152	1.873178005	face	0.925014972687	1.0	0.8	n/a	n/a	166.013985157	166.017661095	167.013669014	n/a	FFX_139.jpg	FFZ_102.jpg	FFZ_102.jpg
167.16684103	1.863796949999994	face	1.30282115936	1.0	0.8	n/a	n/a	169.03063798	169.034236193	170.013190985	n/a	23M_AN_O.jpg	23M_AN_O.jpg	22M_AN_O.jpg
170.141061068	1.872820138999998	face	0.741323947906	1.0	0.8	n/a	n/a	172.013881207	172.018220186	173.013308048	n/a	MAZ_146.jpg	MAZ_146.jpg	MAX_233.jpg
173.160754204	1.869068860999988	face	1.42483997345	1.0	0.8	n/a	n/a	175.029823065	175.033709049	176.029317141	n/a	15F_FE_O.jpg	15F_FE_O.jpg	16F_FE_O.jpg
179.067457199	1.96171784400002	shape	0.70028591156	1.0	0.8	176.11533618	179.028865099	181.029175043	181.033604145	182.028234005	n/a	oval-horizontal.bmp	oval-vertical.bmp	oval-vertical.bmp
182.136440992	1.8919730190000053	shape	0.719306230545	1.0	0.8	n/a	n/a	184.028414011	184.032427073	185.028184175	n/a	circle.bmp	oval-vertical.bmp	oval-vertical.bmp
185.137817144	1.890725851000013	shape	1.1049914360035	0.0	0.8	n/a	n/a	187.028542995	187.032241106	188.027747154	n/a	oval-horizontal.bmp	oval-horizontal.bmp	oval-vertical.bmp
188.136738062	1.8912069799999929	shape	0.587072134018	1.0	0.8	n/a	n/a	190.027945042	190.031766176	191.027734995	n/a	oval-horizontal.bmp	oval-horizontal.bmp	circle.bmp
191.138185024	1.8897180559999924	shape	0.806423187256	1.0	0.8	n/a	n/a	193.02790308	193.031382084	194.026957989	n/a	circle.bmp	circle.bmp	oval-vertical.bmp
194.135858059	1.8916370870000208	shape	0.868798971176	1.0	0.8	n/a	n/a	196.027495146	196.03134799	197.027016163	n/a	oval-horizontal.bmp	circle.bmp	circle.bmp
200.085856199	1.9410669810000056	face	0.77144908905	1.0	0.8	197.116159201	200.025992155	202.02692318	202.031654119	203.026667118	n/a	FFX_54.jpg	FFX_54.jpg	FAX_51.jpg
203.166740179	1.8597149850000108	face	1.16895008087	1.0	0.8	n/a	n/a	205.026455164	205.030013084	206.025982141	n/a	40M_FE_O.BMP	41M_FE_O.jpg	41M_FE_O.jpg
206.173504114	1.8534629350000105	face	0.671121835709	1.0	0.8	n/a	n/a	208.026967049	208.031013012	209.02524209	n/a	29M_AN_O.jpg	29M_AN_O.jpg	28M_AN_O.jpg
209.154669046	1.871108055999997	face	0.903136968613	1.0	0.8	n/a	n/a	211.025777102	211.029404163	212.024312019	n/a	FFZ_18.jpg	FFZ_29.jpg	FFZ_29.jpg
212.176613092	1.848949910000016	face	1.01998901367	1.0	0.8	n/a	n/a	214.025563002	214.029216051	215.024870157	n/a	19F_AN_O.jpg	19F_AN_O.jpg	09F_AN_O.jpg
215.154196024	1.8708841800000189	face	0.700970888138	1.0	0.8	n/a	n/a	217.025080204	217.028941154	218.02463603	n/a	MFZ_132.jpg	MFZ_7.jpg	MFZ_7.jpg
221.061660051	1.963418007000001	shape	0.769273996353	1.0	0.8	218.113469124	221.024405003	223.025078058	223.029564142	224.023636103	n/a	circle.bmp	oval-vertical.bmp	oval-vertical.bmp
224.138792992	1.8854770660000213	shape	0.836293935776	1.0	0.8	n/a	n/a	226.024270058	226.027914047	227.023125172	n/a	oval-horizontal.bmp	oval-horizontal.bmp	circle.bmp
227.135581017	1.8877940170000045	shape	0.736458063126	1.0	0.8	n/a	n/a	229.023375034	229.027189016	230.02256918	n/a	oval-horizontal.bmp	oval-vertical.bmp	oval-vertical.bmp
230.139369011	1.8833520409999949	shape	1.01971912384	1.0	0.8	n/a	n/a	232.022721052	232.026449203	233.022669077	n/a	oval-horizontal.bmp	circle.bmp	circle.bmp
233.136389017	1.8865780829999887	shape	1.03663301468	1.0	0.8	n/a	n/a	235.0229671	235.0265522	236.022228003	n/a	oval-horizontal.bmp	oval-horizontal.bmp	oval-vertical.bmp
236.135327101	1.887624025000008	shape	0.737384080887	1.0	0.8	n/a	n/a	238.022951126	238.026359081	239.022153139	n/a	circle.bmp	circle.bmp	oval-vertical.bmp
242.104157209	1.91769886100002	face	1.00423002243	1.0	0.8	239.111544132	242.021956205	244.02185607	244.026612043	245.021275997	n/a	20M_FE_O.jpg	21M_FE_O.jpg	21M_FE_O.jpg
245.177048206	1.845579863000012	face	1.00415086746	1.0	0.8	n/a	n/a	247.022628069	247.026188135	248.021634102	n/a	07F_AN_O.jpg	07F_AN_O.jpg	01F_AN_O.jpg
248.150394201	1.8713200099999767	face	0.767691135406	1.0	0.8	n/a	n/a	250.021714211	250.025321007	251.020551205	n/a	FFZ_102.jpg	FFZ_102.jpg	FFX_139.jpg
251.177360058	1.844588994999981	face	0.870288848877	1.0	0.8	n/a	n/a	253.021949053	253.02564311	254.020377159	n/a	22M_AN_O.jpg	23M_AN_O.jpg	23M_AN_O.jpg
254.155533075	1.865308046999985	face	0.737529039383	1.0	0.8	n/a	n/a	256.020841122	256.024549007	257.019872189	n/a	MAX_233.jpg	MAZ_146.jpg	MAZ_146.jpg
257.176513195	1.843779802000029	face	0.736262083054	1.0	0.8	n/a	n/a	259.020292997	259.023996115	260.018767118	n/a	15F_FE_O.jpg	15F_FE_O.jpg	16F_FE_O.jpg
263.058605194	1.9611399170000248	shape	0.852163076401	1.0	0.8	260.112711191	263.019438028	265.019745111	265.024333	266.018969059	n/a	oval-horizontal.bmp	oval-horizontal.bmp	oval-vertical.bmp
266.133890152	1.884752988999992	shape	0.67055606842	1.0	0.8	n/a	n/a	268.018643141	268.022320986	269.018674135	n/a	oval-horizontal.bmp	oval-vertical.bmp	oval-vertical.bmp
269.133625031	1.885230063999984	shape	0.750750780106	1.0	0.8	n/a	n/a	271.018855095	271.022443056	272.018475056	n/a	circle.bmp	circle.bmp	oval-vertical.bmp
272.135457993	1.8832941050000045	shape	0.702022075653	1.0	0.8	n/a	n/a	274.018752098	274.022135019	275.018350124	n/a	circle.bmp	oval-vertical.bmp	oval-vertical.bmp
275.136176109	1.8822059629999897	shape	0.986304044724	1.0	0.8	n/a	n/a	277.018382072	277.021975994	278.017620087	n/a	oval-horizontal.bmp	circle.bmp	circle.bmp
278.137081146	1.880614995999963	shape	0.602458953857	1.0	0.8	n/a	n/a	280.017696142	280.021649122	281.017561197	n/a	oval-horizontal.bmp	oval-horizontal.bmp	circle.bmp
284.075984001	1.9417381289999869	face	0.680150032043	1.0	0.8	281.111152172	284.016391039	286.01772213	286.022311211	287.017275095	n/a	FFZ_18.jpg	FAZ_129.jpg	FAZ_129.jpg
287.178959131	1.838227033999999	face	1.08035802841	1.0	0.8	n/a	n/a	289.017186165	289.020996094	290.016669989	n/a	20M_FE_O.jpg	24M_FE_O.jpg	24M_FE_O.jpg
290.151897192	1.8648378850000429	face	0.837343931198	1.0	0.8	n/a	n/a	292.016735077	292.020828009	293.016160011	n/a	FAZ_23.jpg	FAX_25.jpg	FAX_25.jpg
293.174197197	1.8423838619999628	face	0.719712018967	1.0	0.8	n/a	n/a	295.016581059	295.020460129	296.015849113	n/a	33M_FE_O.jpg	33M_FE_O.jpg	35M_FE_O.jpg
296.175824165	1.8412058360000287	face	0.812878847122	1.0	0.8	n/a	n/a	298.017030001	298.020884037	299.014486074	n/a	01F_AN_O.jpg	01F_AN_O.jpg	02F_AN_O.jpg
299.150709152	1.8650040630000149	face	0.703184127808	1.0	0.8	n/a	n/a	301.015713215	301.019340992	302.015187025	n/a	MFZ_132.jpg	MFZ_132.jpg	MFZ_120.jpg
305.052703142	1.962347031000036	shape	0.65219783783	1.0	0.8	302.11204505	305.015040159	307.015050173	307.019538164	308.014197111	n/a	oval-horizontal.bmp	oval-vertical.bmp	oval-vertical.bmp
308.132907152	1.8816139700000465	shape	0.619821071625	1.0	0.8	n/a	n/a	310.014521122	310.0180161	311.01414299	n/a	circle.bmp	oval-vertical.bmp	oval-vertical.bmp
311.133496046	1.880872011000008	shape	0.786822080612	1.0	0.8	n/a	n/a	313.014368057	313.01812005	314.01360321	n/a	oval-horizontal.bmp	oval-horizontal.bmp	oval-vertical.bmp
314.134150028	1.8798871039999767	shape	0.653065919876	1.0	0.8	n/a	n/a	316.014037132	316.017921209	317.013206005	n/a	oval-horizontal.bmp	oval-horizontal.bmp	circle.bmp
317.132577181	1.8809759620000364	shape	0.768896102905	1.0	0.8	n/a	n/a	319.013553143	319.017196178	320.014091015	n/a	circle.bmp	circle.bmp	oval-vertical.bmp
320.135262012	1.878247977000001	shape	0.753567934036	1.0	0.8	n/a	n/a	322.013509989	322.016906023	323.013288021	n/a	oval-horizontal.bmp	circle.bmp	circle.bmp
326.109980106	1.9199609759999705	face	0.843819141388	1.0	0.8	323.109351158	326.029260159	328.029941082	328.034529209	329.028528214	n/a	17F_FE_O.jpg	18F_FE_O.jpg	18F_FE_O.jpg
329.193315983	1.835604191000016	face	0.758167028427	1.0	0.8	n/a	n/a	331.028920174	331.032730103	332.027932167	n/a	42M_AN_O.jpg	43M_AN_O.jpg	43M_AN_O.jpg
332.187285185	1.8415558340000189	face	0.919672012329	1.0	0.8	n/a	n/a	334.028841019	334.032428026	335.027955055	n/a	31M_FE_O.jpg	31M_FE_O.jpg	32M_FE_O.jpg
335.169850111	1.8591489789999969	face	0.769535064697	1.0	0.8	n/a	n/a	337.02899909	337.03253603	338.027721167	n/a	FAZ_212.jpg	FFZ_236.jpg	FFZ_236.jpg
338.194629192	1.8336567880000416	face	1.00909304619	1.0	0.8	n/a	n/a	340.02828598	340.032267094	341.027250051	n/a	06F_FE_O.jpg	06F_FE_O.jpg	08F_FE_O.jpg
341.165441036	1.862792014999968	face	0.783606052399	1.0	0.8	n/a	n/a	343.028233051	343.031882048	344.027006149	n/a	MAZ_128.jpg	MAZ_128.jpg	MAX_39.jpg
347.063944101	1.963001012999996	shape	0.621216058731	1.0	0.8	344.127707005	347.026823997	349.026945114	349.03135705	350.02640605	n/a	circle.bmp	oval-vertical.bmp	oval-vertical.bmp
350.149290085	1.8773279189999807	shape	0.570039987564	1.0	0.8	n/a	n/a	352.026618004	352.030595064	353.025950193	n/a	oval-horizontal.bmp	oval-horizontal.bmp	circle.bmp
353.152803183	1.8733079429999864	shape	0.756767988205	1.0	0.8	n/a	n/a	355.026111126	355.029736042	356.025981188	n/a	oval-horizontal.bmp	oval-vertical.bmp	oval-vertical.bmp
356.149299145	1.8768079280000047	shape	0.65321803093	1.0	0.8	n/a	n/a	358.026107073	358.029733181	359.025099039	n/a	oval-horizontal.bmp	circle.bmp	circle.bmp
359.14893508	1.8766911029999849	shape	1.11956000328	1.0	0.8	n/a	n/a	361.025626183	361.029318094	362.024872065	n/a	oval-horizontal.bmp	oval-horizontal.bmp	oval-vertical.bmp
362.149181128	1.8759760849999907	shape	0.920174121857	1.0	0.8	n/a	n/a	364.025157213	364.029136181	365.024510145	n/a	circle.bmp	circle.bmp	oval-vertical.bmp
368.080663204	1.9442908769999576	face	0.704600811005	1.0	0.8	365.126073122	368.024784088	370.024954081	370.029565096	371.024429083	n/a	FFZ_18.jpg	FAZ_129.jpg	FAZ_129.jpg
371.194702148	1.8298709400000348	face	1.30533003807	1.0	0.8	n/a	n/a	373.024573088	373.028439045	374.023878098	n/a	20M_FE_O.jpg	24M_FE_O.jpg	24M_FE_O.jpg
374.164390087	1.859697103999963	face	0.703603982925	1.0	0.8	n/a	n/a	376.024087191	376.028112173	377.023239136	n/a	FAZ_23.jpg	FAX_25.jpg	FAX_25.jpg
377.185261011	1.8385879989999687	face	0.603466033936	1.0	0.8	n/a	n/a	379.02384901	379.027474165	380.022157192	n/a	33M_FE_O.jpg	33M_FE_O.jpg	35M_FE_O.jpg
380.187614202	1.8356819159999984	face	0.870271921158	1.0	0.8	n/a	n/a	382.023296118	382.026883125	383.023486137	n/a	01F_AN_O.jpg	01F_AN_O.jpg	02F_AN_O.jpg
383.166992188	1.856021881000004	face	0.620241165161	1.0	0.8	n/a	n/a	385.023014069	385.02670002	386.022323132	394.421281099	MFZ_132.jpg	MFZ_132.jpg	MFZ_120.jpg
