onset	duration	trial_type	response_time	accuracy_binarized	tr_seconds	cueStartTime	cueEndTime	trialEndTime	fixStartTime	fixEndTime	runEndTime	stimLeft	stimTop	stimRight
11.050317049	1.9687378407	shape	1.3697450161	1.0	0.8	8.01402497292	11.0023159981	13.0190548897	13.0236098766	14.017387867	n/a	oval-horizontal.bmp	oval-horizontal.bmp	oval-vertical.bmp
14.124712944	1.8929760455999995	shape	1.4377348423	1.0	0.8	n/a	n/a	16.0176889896	16.0215320587	17.017457962	n/a	oval-horizontal.bmp	oval-vertical.bmp	oval-vertical.bmp
17.1150789261	1.9031801223999985	shape	1.47973799706	1.0	0.8	n/a	n/a	19.0182590485	19.0219709873	20.0166230202	n/a	circle.bmp	circle.bmp	oval-vertical.bmp
20.1182260513	1.8993380070000008	shape	1.02090811729	1.0	0.8	n/a	n/a	22.0175640583	22.0212209225	23.0174200535	n/a	circle.bmp	oval-vertical.bmp	oval-vertical.bmp
23.1161520481	1.901354789700001	shape	0.863886833191	1.0	0.8	n/a	n/a	25.0175068378	25.0212469101	26.0164070129	n/a	oval-horizontal.bmp	circle.bmp	circle.bmp
26.1141250134	1.9022948741000008	shape	0.929174900055	1.0	0.8	n/a	n/a	28.0164198875	28.0205948353	29.0171220303	n/a	oval-horizontal.bmp	oval-horizontal.bmp	circle.bmp
32.0773248672	1.939738035300003	face	0.762301921844	1.0	0.8	29.0953769684	32.0159020424	34.0170629025	34.0216369629	35.0152988434	n/a	FAZ_23.jpg	FAZ_23.jpg	FAX_43.jpg
35.1576859951	1.8583688736	face	0.83028793335	1.0	0.8	n/a	n/a	37.0160548687	37.0197620392	38.0152359009	n/a	26M_FE_O.jpg	26M_FE_O.jpg	27M_FE_O.BMP
38.1399199963	1.875756979000002	face	1.00288891792	1.0	0.8	n/a	n/a	40.0156769753	40.0199449062	41.0148718357	n/a	MFX_16.jpg	MFZ_50.jpg	MFZ_50.jpg
41.1673600674	1.8484258651000047	face	0.819380044937	1.0	0.8	n/a	n/a	43.0157859325	43.0194618702	44.0148739815	n/a	09F_AN_O.jpg	09F_AN_O.jpg	10F_AN_O.jpg
44.1550779343	1.8599090576	face	0.719613075256	1.0	0.8	n/a	n/a	46.0149869919	46.0189239979	47.0134210587	n/a	38M_AN_O.BMP	39M_AN_O.jpg	39M_AN_O.jpg
47.1349649429	1.879733085700004	face	1.00355505943	1.0	0.8	n/a	n/a	49.0146980286	49.0182938576	50.0137400627	n/a	FFZ_102.jpg	FFX_130.jpg	FFX_130.jpg
53.05179286	1.9623351097	shape	0.786328792572	1.0	0.8	50.0894389153	53.0138759613	55.0141279697	55.0188019276	56.013076067	n/a	oval-horizontal.bmp	oval-vertical.bmp	oval-vertical.bmp
56.1181330681	1.895537853199997	shape	0.90277504921	1.0	0.8	n/a	n/a	58.0136709213	58.0173449516	59.0132539272	n/a	circle.bmp	oval-vertical.bmp	oval-vertical.bmp
59.1166889668	1.8961489200000017	shape	0.803247213364	1.0	0.8	n/a	n/a	61.0128378868	61.0164659023	62.0126810074	n/a	oval-horizontal.bmp	oval-horizontal.bmp	oval-vertical.bmp
62.1130468845	1.899440050199992	shape	0.775433063507	1.0	0.8	n/a	n/a	64.0124869347	64.0160698891	65.0120279789	n/a	oval-horizontal.bmp	oval-horizontal.bmp	circle.bmp
65.1133470535	1.8989899159000032	shape	1.07596802711	1.0	0.8	n/a	n/a	67.0123369694	67.0159358978	68.0125069618	n/a	circle.bmp	circle.bmp	oval-vertical.bmp
68.118350029	1.8933489323000003	shape	0.752336025238	1.0	0.8	n/a	n/a	70.0116989613	70.0152690411	71.0116000175	n/a	oval-horizontal.bmp	circle.bmp	circle.bmp
74.1039478779	1.9079141617000064	face	0.807374000549	1.0	0.8	71.0882279873	74.0113999844	76.0118620396	76.0189979076	77.0107469559	n/a	03F_FE_O.jpg	05F_FE_O.jpg	05F_FE_O.jpg
77.1352980137	1.8760468960000047	face	0.970105886459	1.0	0.8	n/a	n/a	79.0113449097	79.0149669647	80.0134320259	n/a	FAZ_32.jpg	FAZ_32.jpg	FAX_45.jpg
80.1423900127	1.868536949199992	face	1.13979911804	1.0	0.8	n/a	n/a	82.0109269619	82.0145590305	83.0108380318	n/a	MAZ_128.jpg	MAZ_101.jpg	MAZ_101.jpg
83.1599898338	1.867190122600008	face	0.856522083282	1.0	0.8	n/a	n/a	85.0271799564	85.0308189392	86.0263328552	n/a	11F_AN_O.jpg	11F_AN_O.jpg	12F_AN_O.jpg
86.1696748734	1.857511043499997	face	0.839146852493	1.0	0.8	n/a	n/a	88.0271859169	88.0308270454	89.0264189243	n/a	26M_FE_O.jpg	33M_FE_O.jpg	33M_FE_O.jpg
89.1502389908	1.876218080499996	face	1.1170668602	1.0	0.8	n/a	n/a	91.0264570713	91.030066967	92.0257928371	n/a	MFZ_132.jpg	MFZ_132.jpg	MFZ_120.jpg
95.0625150204	1.9632370471999965	shape	0.705372095108	1.0	0.8	92.1073539257	95.0254318714	97.0257520676	97.0302460194	98.0250530243	n/a	circle.bmp	oval-vertical.bmp	oval-vertical.bmp
98.1282038689	1.8972411151000017	shape	0.82320022583	1.0	0.8	n/a	n/a	100.025444984	100.029501915	101.024740934	n/a	oval-horizontal.bmp	oval-horizontal.bmp	circle.bmp
101.130562067	1.894021988000005	shape	0.738271951675	1.0	0.8	n/a	n/a	103.024584055	103.028230906	104.025105	n/a	oval-horizontal.bmp	oval-vertical.bmp	oval-vertical.bmp
104.127006054	1.8976337909999896	shape	0.954176902771	1.0	0.8	n/a	n/a	106.024639845	106.028328896	107.024483919	n/a	oval-horizontal.bmp	circle.bmp	circle.bmp
107.13040185	1.8945851320000031	shape	0.873461008072	1.0	0.8	n/a	n/a	109.024986982	109.028635979	110.023602009	n/a	oval-horizontal.bmp	oval-horizontal.bmp	oval-vertical.bmp
110.129401922	1.8942401409999967	shape	0.803961038589	1.0	0.8	n/a	n/a	112.023642063	112.027345896	113.023365974	n/a	circle.bmp	circle.bmp	oval-vertical.bmp
116.081869841	1.9422700399999968	face	0.670060873032	1.0	0.8	113.106158972	116.022222996	118.024139881	118.028771877	119.023368835	n/a	FAZ_23.jpg	FAZ_23.jpg	FAX_43.jpg
119.156208992	1.8664810659999915	face	0.769762992859	1.0	0.8	n/a	n/a	121.022690058	121.026546001	122.021872044	n/a	26M_FE_O.jpg	26M_FE_O.jpg	27M_FE_O.BMP
122.142169952	1.8799331190000004	face	0.719749927521	1.0	0.8	n/a	n/a	124.022103071	124.02580595	125.021815062	n/a	MFZ_50.jpg	MFZ_50.jpg	MFX_16.jpg
125.173513889	1.849285125999998	face	0.885543107986	1.0	0.8	n/a	n/a	127.022799015	127.02639699	128.021718979	n/a	10F_AN_O.jpg	09F_AN_O.jpg	09F_AN_O.jpg
128.16335988	1.8589160450000008	face	0.752841949463	1.0	0.8	n/a	n/a	130.022275925	130.02588892	131.021512985	n/a	38M_AN_O.BMP	39M_AN_O.jpg	39M_AN_O.jpg
131.14565587	1.876209020999994	face	1.18680620193	1.0	0.8	n/a	n/a	133.021864891	133.025598049	134.020963907	n/a	FFZ_102.jpg	FFX_130.jpg	FFX_130.jpg
137.05932188	1.9627001290000123	shape	0.820019006729	1.0	0.8	134.102349997	137.021241903	139.022022009	139.026646852	140.020567894	n/a	oval-horizontal.bmp	oval-horizontal.bmp	oval-vertical.bmp
140.12638402	1.8942430020000245	shape	1.02072191238	1.0	0.8	n/a	n/a	142.020627022	142.024248838	143.020704031	n/a	oval-horizontal.bmp	oval-vertical.bmp	oval-vertical.bmp
143.126960993	1.893414973999996	shape	0.871433019638	1.0	0.8	n/a	n/a	145.020375967	145.024096012	146.019713879	n/a	circle.bmp	circle.bmp	oval-vertical.bmp
146.124433041	1.8958778379999897	shape	0.902985095978	1.0	0.8	n/a	n/a	148.020310879	148.024545908	149.020077944	n/a	circle.bmp	oval-vertical.bmp	oval-vertical.bmp
149.125984907	1.8935840130000088	shape	0.919846057892	1.0	0.8	n/a	n/a	151.01956892	151.023380041	152.019532919	n/a	oval-horizontal.bmp	circle.bmp	circle.bmp
152.127845049	1.8913228510000124	shape	0.83695101738	1.0	0.8	n/a	n/a	154.0191679	154.022853851	155.018621922	n/a	oval-horizontal.bmp	oval-horizontal.bmp	circle.bmp
158.096237898	1.923367976999998	face	0.931704998016	1.0	0.8	155.102303028	158.018424988	160.019605875	160.024402857	161.018146992	n/a	20M_FE_O.jpg	21M_FE_O.jpg	21M_FE_O.jpg
161.172096014	1.8470950130000008	face	0.653948068619	1.0	0.8	n/a	n/a	163.019191027	163.022960901	164.018249035	n/a	01F_AN_O.jpg	07F_AN_O.jpg	07F_AN_O.jpg
164.148028851	1.870194196	face	0.852441072464	1.0	0.8	n/a	n/a	166.018223047	166.021950006	167.017722845	n/a	FFX_139.jpg	FFZ_102.jpg	FFZ_102.jpg
167.16654706	1.8522479529999885	face	1.03687596321	1.0	0.8	n/a	n/a	169.018795013	169.022438049	170.017021894	n/a	23M_AN_O.jpg	23M_AN_O.jpg	22M_AN_O.jpg
170.145189047	1.8715119359999903	face	0.947096824646	1.0	0.8	n/a	n/a	172.016700983	172.020586014	173.016866922	n/a	MAZ_146.jpg	MAZ_146.jpg	MAX_233.jpg
173.171424866	1.8457970620000024	face	1.23646688461	0.0	0.8	n/a	n/a	175.017221928	175.020726919	176.015944958	n/a	15F_FE_O.jpg	15F_FE_O.jpg	16F_FE_O.jpg
179.054062843	1.962445021000008	shape	0.685082912445	1.0	0.8	176.10182786	179.016700983	181.016507864	181.021111965	182.015583992	n/a	oval-horizontal.bmp	oval-vertical.bmp	oval-vertical.bmp
182.125773907	1.890666960999993	shape	0.778007984161	1.0	0.8	n/a	n/a	184.016440868	184.020328045	185.015246868	n/a	circle.bmp	oval-vertical.bmp	oval-vertical.bmp
185.12322998	1.8920209409999984	shape	0.870426893234	1.0	0.8	n/a	n/a	187.015250921	187.019252062	188.014963865	n/a	oval-horizontal.bmp	oval-horizontal.bmp	oval-vertical.bmp
188.125022888	1.8900561330000016	shape	0.646771907806	1.0	0.8	n/a	n/a	190.015079021	190.019104958	191.014746904	n/a	oval-horizontal.bmp	oval-horizontal.bmp	circle.bmp
191.127671003	1.8874070650000192	shape	0.896189928055	1.0	0.8	n/a	n/a	193.015078068	193.019124985	194.01504302	n/a	circle.bmp	circle.bmp	oval-vertical.bmp
194.130840063	1.8838939670000057	shape	0.895138978958	1.0	0.8	n/a	n/a	196.01473403	196.019139051	197.014041901	n/a	oval-horizontal.bmp	circle.bmp	circle.bmp
200.071718931	1.942515135000008	face	0.654325962067	1.0	0.8	197.10116601	200.01375103	202.014234066	202.019050837	203.013357878	n/a	FFX_54.jpg	FFX_54.jpg	FAX_51.jpg
203.155721903	1.857985020000001	face	0.761118888855	1.0	0.8	n/a	n/a	205.013706923	205.017580032	206.012923002	n/a	40M_FE_O.BMP	41M_FE_O.jpg	41M_FE_O.jpg
206.169450998	1.844177962000004	face	0.686999082565	1.0	0.8	n/a	n/a	208.01362896	208.018126965	209.012794971	n/a	29M_AN_O.jpg	29M_AN_O.jpg	28M_AN_O.jpg
209.145220995	1.868023872000009	face	1.29445791245	1.0	0.8	n/a	n/a	211.013244867	211.016991854	212.012920856	n/a	FFZ_18.jpg	FFZ_29.jpg	FFZ_29.jpg
212.167831898	1.8459160330000088	face	0.937496185303	1.0	0.8	n/a	n/a	214.013747931	214.017402887	215.012066841	n/a	19F_AN_O.jpg	19F_AN_O.jpg	09F_AN_O.jpg
215.147161007	1.865872859999996	face	0.777154922485	1.0	0.8	n/a	n/a	217.013033867	217.016736984	218.012075901	n/a	MFZ_132.jpg	MFZ_7.jpg	MFZ_7.jpg
221.048701048	1.963363885999996	shape	0.868860960007	1.0	0.8	218.103998899	221.011318922	223.012064934	223.016613007	224.011221886	n/a	circle.bmp	oval-vertical.bmp	oval-vertical.bmp
224.125470877	1.8856799600000045	shape	0.708590984344	1.0	0.8	n/a	n/a	226.011150837	226.014811039	227.010740042	n/a	oval-horizontal.bmp	oval-horizontal.bmp	circle.bmp
227.125504017	1.9023938180000075	shape	0.860346078873	1.0	0.8	n/a	n/a	229.027897835	229.031539917	230.027061939	n/a	oval-horizontal.bmp	oval-vertical.bmp	oval-vertical.bmp
230.142315865	1.884936094000011	shape	0.992195129395	1.0	0.8	n/a	n/a	232.027251959	232.031340837	233.026496887	n/a	oval-horizontal.bmp	circle.bmp	circle.bmp
233.139590025	1.8870949740000071	shape	1.57459282875	1.0	0.8	n/a	n/a	235.026684999	235.030300856	236.026471853	n/a	oval-horizontal.bmp	oval-horizontal.bmp	oval-vertical.bmp
236.141170025	1.8855960369999991	shape	1.05884814262	1.0	0.8	n/a	n/a	238.026766062	238.030663013	239.026243925	n/a	circle.bmp	circle.bmp	oval-vertical.bmp
242.105345011	1.920649050999998	face	1.09307694435	1.0	0.8	239.115942001	242.026134968	244.025994062	244.030537844	245.025573015	n/a	20M_FE_O.jpg	21M_FE_O.jpg	21M_FE_O.jpg
245.182909012	1.84330105799998	face	0.840527772903	1.0	0.8	n/a	n/a	247.02621007	247.029855013	248.024463892	n/a	07F_AN_O.jpg	07F_AN_O.jpg	01F_AN_O.jpg
248.154463053	1.8709948059999988	face	1.27279615402	1.0	0.8	n/a	n/a	250.025457859	250.029299021	251.024133921	n/a	FFZ_102.jpg	FFZ_102.jpg	FFX_139.jpg
251.184020996	1.8409490590000248	face	0.772464990616	1.0	0.8	n/a	n/a	253.024970055	253.028566837	254.024402857	n/a	22M_AN_O.jpg	23M_AN_O.jpg	23M_AN_O.jpg
254.156447887	1.867562055999997	face	0.989675045013	1.0	0.8	n/a	n/a	256.024009943	256.02765584	257.023973942	n/a	MAX_233.jpg	MAZ_146.jpg	MAZ_146.jpg
257.174561024	1.8498678199999856	face	1.00746011734	1.0	0.8	n/a	n/a	259.024428844	259.028075933	260.023607969	n/a	15F_FE_O.jpg	15F_FE_O.jpg	16F_FE_O.jpg
263.061487913	1.9620370869999988	shape	0.871289014816	1.0	0.8	260.116629839	263.023712873	265.023525	265.02828598	266.023324966	n/a	oval-horizontal.bmp	oval-horizontal.bmp	oval-vertical.bmp
266.139724016	1.8832149510000136	shape	1.12293195724	0.0	0.8	n/a	n/a	268.022938967	268.026916981	269.023368835	n/a	oval-horizontal.bmp	oval-vertical.bmp	oval-vertical.bmp
269.14340806	1.8799288270000147	shape	0.837903022766	1.0	0.8	n/a	n/a	271.023336887	271.026939869	272.022759914	n/a	circle.bmp	circle.bmp	oval-vertical.bmp
272.141670942	1.881540059999964	shape	0.83701300621	1.0	0.8	n/a	n/a	274.023211002	274.026713848	275.022111893	n/a	circle.bmp	oval-vertical.bmp	oval-vertical.bmp
275.13981986	1.882700204999992	shape	1.00448894501	1.0	0.8	n/a	n/a	277.022520065	277.026141882	278.021431923	n/a	oval-horizontal.bmp	circle.bmp	circle.bmp
278.137368917	1.8847320080000145	shape	0.9209420681	1.0	0.8	n/a	n/a	280.022100925	280.026042938	281.021158934	n/a	oval-horizontal.bmp	oval-horizontal.bmp	circle.bmp
284.080783844	1.9410321710000176	face	0.870004177094	1.0	0.8	281.114739895	284.021437883	286.021816015	286.02639389	287.021043062	n/a	FFZ_18.jpg	FAZ_129.jpg	FAZ_129.jpg
287.186080933	1.8357510559999923	face	0.885806083679	1.0	0.8	n/a	n/a	289.021831989	289.025549889	290.019692898	n/a	20M_FE_O.jpg	24M_FE_O.jpg	24M_FE_O.jpg
290.159919024	1.860028982000017	face	0.852880001068	1.0	0.8	n/a	n/a	292.019948006	292.024132013	293.019607067	n/a	FAZ_23.jpg	FAX_25.jpg	FAX_25.jpg
293.180753946	1.8395988940000048	face	0.82009100914	1.0	0.8	n/a	n/a	295.02035284	295.023784876	296.018815041	n/a	33M_FE_O.jpg	33M_FE_O.jpg	35M_FE_O.jpg
296.18629694	1.834015131000001	face	0.719645023346	1.0	0.8	n/a	n/a	298.020312071	298.023995876	299.019536972	n/a	01F_AN_O.jpg	01F_AN_O.jpg	02F_AN_O.jpg
299.161301851	1.8583850859999984	face	0.783883094788	1.0	0.8	n/a	n/a	301.019686937	301.023304939	302.018972874	n/a	MFZ_132.jpg	MFZ_132.jpg	MFZ_120.jpg
305.055661917	1.963395117999994	shape	1.11995911598	1.0	0.8	302.114961863	305.018666983	307.019057035	307.02361393	308.018441916	n/a	oval-horizontal.bmp	oval-vertical.bmp	oval-vertical.bmp
308.139701843	1.878813029000014	shape	0.687819004059	1.0	0.8	n/a	n/a	310.018514872	310.022172928	311.017919064	n/a	circle.bmp	oval-vertical.bmp	oval-vertical.bmp
311.136937857	1.882009982999989	shape	0.970582962036	1.0	0.8	n/a	n/a	313.01894784	313.022441864	314.018494844	n/a	oval-horizontal.bmp	oval-horizontal.bmp	oval-vertical.bmp
314.141507864	1.8763861659999748	shape	1.13663506508	1.0	0.8	n/a	n/a	316.01789403	316.021883965	317.017361879	n/a	oval-horizontal.bmp	oval-horizontal.bmp	circle.bmp
317.137066841	1.8808422090000363	shape	0.938208818436	1.0	0.8	n/a	n/a	319.01790905	319.021919012	320.016195059	n/a	circle.bmp	circle.bmp	oval-vertical.bmp
320.139683008	1.8780419830000028	shape	1.30287790298	1.0	0.8	n/a	n/a	322.017724991	322.021402836	323.017231941	n/a	oval-horizontal.bmp	circle.bmp	circle.bmp
326.102993011	1.914162874999988	face	0.870363950729	1.0	0.8	323.116955996	326.016552925	328.017155886	328.022109985	329.016036034	n/a	17F_FE_O.jpg	18F_FE_O.jpg	18F_FE_O.jpg
329.179343939	1.8369131090000224	face	0.736127853394	1.0	0.8	n/a	n/a	331.016257048	331.019932985	332.015406847	n/a	42M_AN_O.jpg	43M_AN_O.jpg	43M_AN_O.jpg
332.176339865	1.8403341769999884	face	0.828425168991	1.0	0.8	n/a	n/a	334.016674042	334.020452976	335.015529871	n/a	31M_FE_O.jpg	31M_FE_O.jpg	32M_FE_O.jpg
335.158910036	1.8567759989999784	face	0.764885187149	1.0	0.8	n/a	n/a	337.015686035	337.019258976	338.014886856	n/a	FAZ_212.jpg	FFZ_236.jpg	FFZ_236.jpg
338.183711052	1.8318929670000443	face	1.03735518456	1.0	0.8	n/a	n/a	340.015604019	340.019547939	341.014492989	n/a	06F_FE_O.jpg	06F_FE_O.jpg	08F_FE_O.jpg
341.151332855	1.8640520569999808	face	0.753317117691	1.0	0.8	n/a	n/a	343.015384912	343.01909399	344.014443874	n/a	MAZ_128.jpg	MAZ_128.jpg	MAX_39.jpg
347.051826954	1.9625639910000243	shape	1.10021090508	1.0	0.8	344.112519979	347.013465881	349.014390945	349.018938065	350.013562918	n/a	circle.bmp	oval-vertical.bmp	oval-vertical.bmp
350.13774085	1.8757860669999784	shape	0.654023885727	1.0	0.8	n/a	n/a	352.013526917	352.017493963	353.013736963	n/a	oval-horizontal.bmp	oval-horizontal.bmp	circle.bmp
353.133368015	1.8806378840000093	shape	1.55428695679	1.0	0.8	n/a	n/a	355.014005899	355.017664909	356.012794018	n/a	oval-horizontal.bmp	oval-vertical.bmp	oval-vertical.bmp
356.136123896	1.876965046000009	shape	0.83725810051	1.0	0.8	n/a	n/a	358.013088942	358.016782999	359.01264286	n/a	oval-horizontal.bmp	circle.bmp	circle.bmp
359.141026974	1.87154102300002	shape	1.72989702225	1.0	0.8	n/a	n/a	361.012567997	361.016515017	362.012094975	n/a	oval-horizontal.bmp	oval-horizontal.bmp	oval-vertical.bmp
362.135885	1.8763430120000064	shape	0.853579044342	1.0	0.8	n/a	n/a	364.012228012	364.01659894	365.012398958	n/a	circle.bmp	circle.bmp	oval-vertical.bmp
368.065731049	1.94728493599996	face	0.753419876099	1.0	0.8	365.113466978	368.011604071	370.013015985	370.017686844	371.011147022	n/a	FFZ_18.jpg	FAZ_129.jpg	FAZ_129.jpg
371.179204941	1.832580088999976	face	1.18626523018	1.0	0.8	n/a	n/a	373.01178503	373.015588999	374.010776997	n/a	20M_FE_O.jpg	24M_FE_O.jpg	24M_FE_O.jpg
374.152909994	1.8585169319999864	face	1.55347895622	1.0	0.8	n/a	n/a	376.011426926	376.015817881	377.010555029	n/a	FAZ_23.jpg	FAX_25.jpg	FAX_25.jpg
377.174142838	1.8368940350000005	face	0.8112449646	1.0	0.8	n/a	n/a	379.011036873	379.014662981	380.010733843	n/a	33M_FE_O.jpg	33M_FE_O.jpg	35M_FE_O.jpg
380.187227964	1.823715926000034	face	0.710855007172	1.0	0.8	n/a	n/a	382.01094389	382.014561892	383.010270834	n/a	01F_AN_O.jpg	01F_AN_O.jpg	02F_AN_O.jpg
383.155501842	1.8555090430000405	face	0.62740111351	1.0	0.8	n/a	n/a	385.011010885	385.014652014	386.010197878	394.426074028	MFZ_132.jpg	MFZ_132.jpg	MFZ_120.jpg
