onset	duration	trial_type	response_time	accuracy_binarized	tr_seconds	cueStartTime	cueEndTime	trialEndTime	fixStartTime	fixEndTime	runEndTime	stimLeft	stimTop	stimRight
11.0599379539	1.9704151154	shape	1.94771909714	1.0	0.8	8.02385902405	11.0140140057	13.0303530693	13.0349400043	14.0292339325	n/a	oval-horizontal.bmp	oval-horizontal.bmp	oval-vertical.bmp
14.1383340359	1.8911459446	shape	1.21534895897	1.0	0.8	n/a	n/a	16.0294799805	16.0334908962	17.0290038586	n/a	oval-horizontal.bmp	oval-vertical.bmp	oval-vertical.bmp
17.1293540001	1.900292873399998	shape	1.05342483521	1.0	0.8	n/a	n/a	19.0296468735	19.0333380699	20.0286240578	n/a	circle.bmp	circle.bmp	oval-vertical.bmp
20.1286199093	1.9000689983	shape	0.820635080338	1.0	0.8	n/a	n/a	22.0286889076	22.0325069427	23.0278809071	n/a	circle.bmp	oval-vertical.bmp	oval-vertical.bmp
23.1201620102	1.9082779883999983	shape	0.867603063583	1.0	0.8	n/a	n/a	25.0284399986	25.031826973	26.0272910595	n/a	oval-horizontal.bmp	circle.bmp	circle.bmp
26.1215250492	1.9058330059	shape	1.02680397034	1.0	0.8	n/a	n/a	28.0273580551	28.0318510532	29.0272190571	n/a	oval-horizontal.bmp	oval-horizontal.bmp	circle.bmp
32.0896699429	1.9377579688999944	face	1.22992920876	1.0	0.8	29.0968298912	32.0260639191	34.0274279118	34.0320370197	35.0258629322	n/a	FAZ_23.jpg	FAZ_23.jpg	FAX_43.jpg
35.1628639698	1.8640389441999967	face	1.35226011276	1.0	0.8	n/a	n/a	37.026902914	37.0306890011	38.0259349346	n/a	26M_FE_O.jpg	26M_FE_O.jpg	27M_FE_O.BMP
38.1401669979	1.8867259025999985	face	1.04464197159	1.0	0.8	n/a	n/a	40.0268929005	40.0308680534	41.0263500214	n/a	MFX_16.jpg	MFZ_50.jpg	MFZ_50.jpg
41.1711299419	1.8555700779000048	face	1.2533040046695	1.0	0.8	n/a	n/a	43.0267000198	43.03034091	44.024987936	n/a	09F_AN_O.jpg	09F_AN_O.jpg	10F_AN_O.jpg
44.1572110653	1.868606805800006	face	0.911061048508	1.0	0.8	n/a	n/a	46.0258178711	46.0294098854	47.0250320435	n/a	38M_AN_O.BMP	39M_AN_O.jpg	39M_AN_O.jpg
47.1437249184	1.881880998600004	face	0.769681930542	1.0	0.8	n/a	n/a	49.025605917	49.0292918682	50.0248379707	n/a	FFZ_102.jpg	FFX_130.jpg	FFX_130.jpg
53.0605180264	1.9630148410000032	shape	1.43444395065	1.0	0.8	50.0951869488	53.0243649483	55.0235328674	55.0271420479	56.0232899189	n/a	oval-horizontal.bmp	oval-vertical.bmp	oval-vertical.bmp
56.1152980328	1.9073579311000013	shape	0.81836605072	1.0	0.8	n/a	n/a	58.0226559639	58.0260260105	59.0236759186	n/a	circle.bmp	oval-vertical.bmp	oval-vertical.bmp
59.1173570156	1.9065549374000028	shape	1.19267010689	1.0	0.8	n/a	n/a	61.023911953	61.0275039673	62.0232930183	n/a	oval-horizontal.bmp	oval-horizontal.bmp	oval-vertical.bmp
62.1169989109	1.9060220718000025	shape	0.826668024063	1.0	0.8	n/a	n/a	64.0230209827	64.0275418758	65.022949934	n/a	oval-horizontal.bmp	oval-horizontal.bmp	circle.bmp
65.1195950508	1.903681993500001	shape	0.959922075272	1.0	0.8	n/a	n/a	67.0232770443	67.0268919468	68.022922039	n/a	circle.bmp	circle.bmp	oval-vertical.bmp
68.1191449165	1.9040479659999927	shape	1.19293189049	1.0	0.8	n/a	n/a	70.0231928825	70.0267739296	71.0230219364	n/a	oval-horizontal.bmp	circle.bmp	circle.bmp
74.1129159927	1.9091980458000108	face	1.4538629055	1.0	0.8	71.0947740078	74.0221259594	76.0221140385	76.0269210339	77.0217499733	n/a	03F_FE_O.jpg	05F_FE_O.jpg	05F_FE_O.jpg
77.1346290112	1.8874628542999967	face	0.841840028763	1.0	0.8	n/a	n/a	79.0220918655	79.0256788731	80.0209920406	n/a	FAZ_32.jpg	FAZ_32.jpg	FAX_45.jpg
80.1360170841	1.8855409621999968	face	n/a	0.0	0.8	n/a	n/a	82.0215580463	82.0251560211	83.0213360786	n/a	MAZ_128.jpg	MAZ_101.jpg	MAZ_101.jpg
83.1608228683	1.860441207899996	face	1.05339717865	1.0	0.8	n/a	n/a	85.0212640762	85.0248429775	86.021239996	n/a	11F_AN_O.jpg	11F_AN_O.jpg	12F_AN_O.jpg
86.1622049809	1.8592109679999995	face	1.01973104477	1.0	0.8	n/a	n/a	88.0214159489	88.0251538754	89.0209209919	n/a	26M_FE_O.jpg	33M_FE_O.jpg	33M_FE_O.jpg
89.1468629837	1.8748409747999943	face	1.07196307182	1.0	0.8	n/a	n/a	91.0217039585	91.0253419876	92.0206310749	n/a	MFZ_132.jpg	MFZ_132.jpg	MFZ_120.jpg
95.0589060783	1.9618389607000069	shape	0.87428188324	1.0	0.8	92.0991680622	95.0207750797	97.020745039	97.0252590179	98.0202629566	n/a	circle.bmp	oval-vertical.bmp	oval-vertical.bmp
98.1217589378	1.898366928200005	shape	0.889256000519	1.0	0.8	n/a	n/a	100.020125866	100.023988008	101.019819021	n/a	oval-horizontal.bmp	oval-horizontal.bmp	circle.bmp
101.123178005	1.8970010280000047	shape	1.17229294777	1.0	0.8	n/a	n/a	103.020179033	103.023756981	104.019983053	n/a	oval-horizontal.bmp	oval-vertical.bmp	oval-vertical.bmp
104.122830868	1.8973181250000124	shape	0.755825042725	1.0	0.8	n/a	n/a	106.020148993	106.023742914	107.018805027	n/a	oval-horizontal.bmp	circle.bmp	circle.bmp
107.122288942	1.8967721470000072	shape	1.16912698746	1.0	0.8	n/a	n/a	109.019061089	109.022603989	110.018495083	n/a	oval-horizontal.bmp	oval-horizontal.bmp	oval-vertical.bmp
110.122633934	1.8955111499999904	shape	1.0042321682	1.0	0.8	n/a	n/a	112.018145084	112.02215004	113.018131971	n/a	circle.bmp	circle.bmp	oval-vertical.bmp
116.074054003	1.944444895000004	face	1.22030591965	1.0	0.8	113.102313995	116.017580986	118.018498898	118.02326107	119.017872095	n/a	FAZ_23.jpg	FAZ_23.jpg	FAX_43.jpg
119.150577068	1.8676319129999968	face	0.953348875046	1.0	0.8	n/a	n/a	121.018208981	121.021833897	122.01700592	n/a	26M_FE_O.jpg	26M_FE_O.jpg	27M_FE_O.BMP
122.141072989	1.8764359950000085	face	0.902241945267	1.0	0.8	n/a	n/a	124.017508984	124.021449089	125.016789913	n/a	MFZ_50.jpg	MFZ_50.jpg	MFX_16.jpg
125.166306019	1.851486921000003	face	1.46941804886	1.0	0.8	n/a	n/a	127.01779294	127.021437883	128.017468929	n/a	10F_AN_O.jpg	09F_AN_O.jpg	09F_AN_O.jpg
128.152563095	1.8649129869999967	face	1.3879108429	1.0	0.8	n/a	n/a	130.017476082	130.021416903	131.016916037	n/a	38M_AN_O.BMP	39M_AN_O.jpg	39M_AN_O.jpg
131.140820026	1.8929479130000004	face	1.08701491356	1.0	0.8	n/a	n/a	133.033767939	133.037425995	134.031981945	n/a	FFZ_102.jpg	FFX_130.jpg	FFX_130.jpg
137.069136858	1.963533162999994	shape	1.40356397629	1.0	0.8	134.113847971	137.031805992	139.032670021	139.037397861	140.031909943	n/a	oval-horizontal.bmp	oval-horizontal.bmp	oval-vertical.bmp
140.135887861	1.8954710960000227	shape	1.16825008392	1.0	0.8	n/a	n/a	142.031358957	142.034878016	143.031611919	n/a	oval-horizontal.bmp	oval-vertical.bmp	oval-vertical.bmp
143.135434866	1.8964700699999923	shape	1.13691592216	1.0	0.8	n/a	n/a	145.031904936	145.03549695	146.031200886	n/a	circle.bmp	circle.bmp	oval-vertical.bmp
146.135353088	1.8962249760000127	shape	n/a	0.0	0.8	n/a	n/a	148.031578064	148.035275936	149.030917883	n/a	circle.bmp	oval-vertical.bmp	oval-vertical.bmp
149.13795495	1.8936979770000164	shape	n/a	0.0	0.8	n/a	n/a	151.031652927	151.035573959	152.030492067	n/a	oval-horizontal.bmp	circle.bmp	circle.bmp
152.139297962	1.8915700910000053	shape	1.23710608482	1.0	0.8	n/a	n/a	154.030868053	154.034466028	155.03035903	n/a	oval-horizontal.bmp	oval-horizontal.bmp	circle.bmp
158.110820055	1.919286013000004	face	1.55019497871	1.0	0.8	155.11627388	158.029896021	160.030106068	160.035060883	161.030204058	n/a	20M_FE_O.jpg	21M_FE_O.jpg	21M_FE_O.jpg
161.18701005	1.842898845000008	face	1.10290908813	1.0	0.8	n/a	n/a	163.029908895	163.033583879	164.028817892	n/a	01F_AN_O.jpg	07F_AN_O.jpg	07F_AN_O.jpg
164.154375076	1.875317811999992	face	0.983174085617	1.0	0.8	n/a	n/a	166.029692888	166.033427954	167.028723955	n/a	FFX_139.jpg	FFZ_102.jpg	FFZ_102.jpg
167.180598974	1.8486180310000009	face	1.11760807037	1.0	0.8	n/a	n/a	169.029217005	169.032819033	170.028301954	n/a	23M_AN_O.jpg	23M_AN_O.jpg	22M_AN_O.jpg
170.157851934	1.871093989000002	face	0.968423128128	1.0	0.8	n/a	n/a	172.028945923	172.032953978	173.028076887	n/a	MAZ_146.jpg	MAZ_146.jpg	MAX_233.jpg
173.173634052	1.8549599649999773	face	1.48681902885	1.0	0.8	n/a	n/a	175.028594017	175.032244921	176.028259993	n/a	15F_FE_O.jpg	15F_FE_O.jpg	16F_FE_O.jpg
179.064329863	1.964138030999976	shape	1.40172410011	1.0	0.8	176.113286972	179.027680874	181.028467894	181.033101082	182.027153015	n/a	oval-horizontal.bmp	oval-vertical.bmp	oval-vertical.bmp
182.136697054	1.8907449240000176	shape	1.06137895584	1.0	0.8	n/a	n/a	184.027441978	184.031493902	185.026733875	n/a	circle.bmp	oval-vertical.bmp	oval-vertical.bmp
185.134160042	1.892789840999996	shape	1.13655686378	1.0	0.8	n/a	n/a	187.026949883	187.030623913	188.026663065	n/a	oval-horizontal.bmp	oval-horizontal.bmp	oval-vertical.bmp
188.141258955	1.885391950999974	shape	0.997596025467	1.0	0.8	n/a	n/a	190.026650906	190.030482054	191.02637887	n/a	oval-horizontal.bmp	oval-horizontal.bmp	circle.bmp
191.134443045	1.8918809889999864	shape	1.26866912842	1.0	0.8	n/a	n/a	193.026324034	193.030128956	194.026154041	n/a	circle.bmp	circle.bmp	oval-vertical.bmp
194.13647604	1.8897140020000047	shape	1.64714503288	1.0	0.8	n/a	n/a	196.026190042	196.030104876	197.02560091	n/a	oval-horizontal.bmp	circle.bmp	circle.bmp
200.082825899	1.9429781439999945	face	1.30206394196	1.0	0.8	197.112006903	200.024601936	202.025804043	202.031013966	203.024746895	n/a	FFX_54.jpg	FFX_54.jpg	FAX_51.jpg
203.16721487	1.8584852219999848	face	1.19520688057	1.0	0.8	n/a	n/a	205.025700092	205.029666901	206.025135994	n/a	40M_FE_O.BMP	41M_FE_O.jpg	41M_FE_O.jpg
206.17698288	1.847639084000008	face	0.951870918274	1.0	0.8	n/a	n/a	208.024621964	208.028449059	209.024267912	n/a	29M_AN_O.jpg	29M_AN_O.jpg	28M_AN_O.jpg
209.153670073	1.870810984999992	face	1.24746108055	1.0	0.8	n/a	n/a	211.024481058	211.02816987	212.023550987	n/a	FFZ_18.jpg	FFZ_29.jpg	FFZ_29.jpg
212.181632042	1.842700958000023	face	1.18650197983	1.0	0.8	n/a	n/a	214.024333	214.02800703	215.023618937	n/a	19F_AN_O.jpg	19F_AN_O.jpg	09F_AN_O.jpg
215.158679008	1.8652460579999968	face	0.804314136505	1.0	0.8	n/a	n/a	217.023925066	217.02760601	218.023305893	n/a	MFZ_132.jpg	MFZ_7.jpg	MFZ_7.jpg
221.059514999	1.963846922000016	shape	n/a	0.0	0.8	218.111007929	221.023109913	223.023361921	223.027914047	224.022253036	n/a	circle.bmp	oval-vertical.bmp	oval-vertical.bmp
224.132132053	1.8908829690000173	shape	n/a	0.0	0.8	n/a	n/a	226.023015022	226.026761055	227.022119999	n/a	oval-horizontal.bmp	oval-horizontal.bmp	circle.bmp
227.133275032	1.889839888000012	shape	0.726243972778	1.0	0.8	n/a	n/a	229.02311492	229.026784897	230.022217035	n/a	oval-horizontal.bmp	oval-vertical.bmp	oval-vertical.bmp
230.136090994	1.8855040070000089	shape	0.926476955414	1.0	0.8	n/a	n/a	232.021595001	232.025719881	233.021173954	n/a	oval-horizontal.bmp	circle.bmp	circle.bmp
233.133663893	1.8881061069999987	shape	1.02609300613	1.0	0.8	n/a	n/a	235.02177	235.025497913	236.021627903	n/a	oval-horizontal.bmp	oval-horizontal.bmp	oval-vertical.bmp
236.132850885	1.888477086999984	shape	0.892524957657	1.0	0.8	n/a	n/a	238.021327972	238.02493906	239.020574093	n/a	circle.bmp	circle.bmp	oval-vertical.bmp
242.097398996	1.9239010809999968	face	1.74146294594	1.0	0.8	239.112252951	242.020471096	244.021300077	244.026376963	245.020154953	n/a	20M_FE_O.jpg	21M_FE_O.jpg	21M_FE_O.jpg
245.18107605	1.8395369049999888	face	1.05995893478	1.0	0.8	n/a	n/a	247.020612955	247.024304867	248.020072937	n/a	07F_AN_O.jpg	07F_AN_O.jpg	01F_AN_O.jpg
248.149178982	1.8710219860000168	face	1.20773100853	1.0	0.8	n/a	n/a	250.020200968	250.023829937	251.019991875	n/a	FFZ_102.jpg	FFZ_102.jpg	FFX_139.jpg
251.17580986	1.84422707600001	face	1.23643493652	1.0	0.8	n/a	n/a	253.020036936	253.023777008	254.019165039	n/a	22M_AN_O.jpg	23M_AN_O.jpg	23M_AN_O.jpg
254.147130966	1.8719019890000084	face	1.49031996727	1.0	0.8	n/a	n/a	256.019032955	256.023068905	257.018697977	n/a	MAX_233.jpg	MAZ_146.jpg	MAZ_146.jpg
257.171056032	1.848192929999982	face	1.4736828804	1.0	0.8	n/a	n/a	259.019248962	259.022872925	260.018322945	n/a	15F_FE_O.jpg	15F_FE_O.jpg	16F_FE_O.jpg
263.05614686	1.9629261489999976	shape	1.02092289925	1.0	0.8	260.108582973	263.018378973	265.019073009	265.023550034	266.017569065	n/a	oval-horizontal.bmp	oval-horizontal.bmp	oval-vertical.bmp
266.129409075	1.888705014999971	shape	1.12205410004	1.0	0.8	n/a	n/a	268.01811409	268.022105932	269.01761198	n/a	oval-horizontal.bmp	oval-vertical.bmp	oval-vertical.bmp
269.131850958	1.885536909000052	shape	n/a	0.0	0.8	n/a	n/a	271.017387867	271.021082878	272.01728797	n/a	circle.bmp	circle.bmp	oval-vertical.bmp
272.133569002	1.8837430479999853	shape	0.872163057327	1.0	0.8	n/a	n/a	274.01731205	274.021285057	275.016714096	n/a	circle.bmp	oval-vertical.bmp	oval-vertical.bmp
275.132989883	1.9005742080000232	shape	1.02145600319	1.0	0.8	n/a	n/a	277.033564091	277.037194967	278.033019066	n/a	oval-horizontal.bmp	circle.bmp	circle.bmp
278.147578001	1.8854780199999936	shape	0.870995044708	1.0	0.8	n/a	n/a	280.033056021	280.036851883	281.032962084	n/a	oval-horizontal.bmp	oval-horizontal.bmp	circle.bmp
284.090265989	1.943484068000032	face	0.937296152115	1.0	0.8	281.129559994	284.032653093	286.033750057	286.03826499	287.031984091	n/a	FFZ_18.jpg	FAZ_129.jpg	FAZ_129.jpg
287.195770025	1.8365969660000017	face	n/a	0.0	0.8	n/a	n/a	289.032366991	289.036030054	290.031872034	n/a	20M_FE_O.jpg	24M_FE_O.jpg	24M_FE_O.jpg
290.166368008	1.865633011	face	0.888386964798	1.0	0.8	n/a	n/a	292.032001019	292.03568697	293.031385899	n/a	FAZ_23.jpg	FAX_25.jpg	FAX_25.jpg
293.191173077	1.8407809730000508	face	1.27047777176	1.0	0.8	n/a	n/a	295.03195405	295.035590887	296.030901909	n/a	33M_FE_O.jpg	33M_FE_O.jpg	35M_FE_O.jpg
296.194458008	1.8375930779999976	face	1.2865588665	1.0	0.8	n/a	n/a	298.032051086	298.035655975	299.031166077	n/a	01F_AN_O.jpg	01F_AN_O.jpg	02F_AN_O.jpg
299.16348505	1.8681819439999567	face	1.3035299778	1.0	0.8	n/a	n/a	301.031666994	301.035323858	302.030822039	n/a	MFZ_132.jpg	MFZ_132.jpg	MFZ_120.jpg
305.06694603	1.9633269309999832	shape	1.05255389214	1.0	0.8	302.128479958	305.029942036	307.030272961	307.035069942	308.029192924	n/a	oval-horizontal.bmp	oval-vertical.bmp	oval-vertical.bmp
308.142751932	1.8873500830000007	shape	1.06955504417	1.0	0.8	n/a	n/a	310.030102015	310.033678055	311.029340982	n/a	circle.bmp	oval-vertical.bmp	oval-vertical.bmp
311.145021915	1.8846380710000403	shape	1.1528878212	1.0	0.8	n/a	n/a	313.029659986	313.033262968	314.029277086	n/a	oval-horizontal.bmp	oval-horizontal.bmp	oval-vertical.bmp
314.143370867	1.8863170139999847	shape	0.919888973236	1.0	0.8	n/a	n/a	316.029687881	316.03339386	317.029227972	n/a	oval-horizontal.bmp	oval-horizontal.bmp	circle.bmp
317.152317047	1.8764479160000176	shape	n/a	0.0	0.8	n/a	n/a	319.028764963	319.032414913	320.028439045	n/a	circle.bmp	circle.bmp	oval-vertical.bmp
320.144943953	1.883703947000015	shape	1.13737392426	1.0	0.8	n/a	n/a	322.0286479	322.032561064	323.027858973	n/a	oval-horizontal.bmp	circle.bmp	circle.bmp
326.113951921	1.9145081049999817	face	1.08536505699	1.0	0.8	323.12313199	326.028493881	328.028460026	328.033075094	329.027441978	n/a	17F_FE_O.jpg	18F_FE_O.jpg	18F_FE_O.jpg
329.186955929	1.841532944999983	face	1.21946287155	1.0	0.8	n/a	n/a	331.028488874	331.03205204	332.027302027	n/a	42M_AN_O.jpg	43M_AN_O.jpg	43M_AN_O.jpg
332.188868046	1.8386130330000008	face	1.38265395164	1.0	0.8	n/a	n/a	334.027481079	334.031076908	335.02637887	n/a	31M_FE_O.jpg	31M_FE_O.jpg	32M_FE_O.jpg
335.16625309	1.8609240050000155	face	1.03674912453	1.0	0.8	n/a	n/a	337.027177095	337.030700922	338.026218891	n/a	FAZ_212.jpg	FFZ_236.jpg	FFZ_236.jpg
338.192118883	1.834879160000014	face	1.40359187126	1.0	0.8	n/a	n/a	340.026998043	340.030827999	341.025907993	n/a	06F_FE_O.jpg	06F_FE_O.jpg	08F_FE_O.jpg
341.160058975	1.8664269450000008	face	1.00277113914	1.0	0.8	n/a	n/a	343.02648592	343.03013587	344.025650978	n/a	MAZ_128.jpg	MAZ_128.jpg	MAX_39.jpg
347.062934875	1.9633240699999988	shape	1.4195599556	1.0	0.8	344.122416973	347.025429964	349.026258945	349.030992985	350.024894953	n/a	circle.bmp	oval-vertical.bmp	oval-vertical.bmp
350.14755702	1.8778889179999965	shape	0.803133010864	1.0	0.8	n/a	n/a	352.025445938	352.029536963	353.024543047	n/a	oval-horizontal.bmp	oval-horizontal.bmp	circle.bmp
353.142184019	1.882966995000004	shape	n/a	0.0	0.8	n/a	n/a	355.025151014	355.028907061	356.024597883	n/a	oval-horizontal.bmp	oval-vertical.bmp	oval-vertical.bmp
356.143433094	1.8806929589999868	shape	n/a	0.0	0.8	n/a	n/a	358.024126053	358.027915955	359.024189949	n/a	oval-horizontal.bmp	circle.bmp	circle.bmp
359.146723032	1.877599954999993	shape	0.969507932663	1.0	0.8	n/a	n/a	361.024322987	361.0282619	362.023597956	n/a	oval-horizontal.bmp	oval-horizontal.bmp	oval-vertical.bmp
362.151026011	1.872236966999992	shape	0.979380846024	1.0	0.8	n/a	n/a	364.023262978	364.027669907	365.023741961	n/a	circle.bmp	circle.bmp	oval-vertical.bmp
368.077152967	1.9466209419999807	face	1.25402283669	1.0	0.8	365.120354891	368.022362947	370.023773909	370.028280973	371.023180008	n/a	FFZ_18.jpg	FAZ_129.jpg	FAZ_129.jpg
371.183805943	1.839534044000004	face	1.64244484901	1.0	0.8	n/a	n/a	373.023339987	373.027513027	374.022382021	n/a	20M_FE_O.jpg	24M_FE_O.jpg	24M_FE_O.jpg
374.157147884	1.866141081000024	face	1.327508091925	1.0	0.8	n/a	n/a	376.023288965	376.027257919	377.022461891	n/a	FAZ_23.jpg	FAX_25.jpg	FAX_25.jpg
377.186086893	1.8364090919999967	face	0.911812067032	1.0	0.8	n/a	n/a	379.022495985	379.026464939	380.021393061	n/a	33M_FE_O.jpg	33M_FE_O.jpg	35M_FE_O.jpg
380.189012051	1.833998917999964	face	0.951672554017	1.0	0.8	n/a	n/a	382.023010969	382.026691914	383.021349907	n/a	01F_AN_O.jpg	01F_AN_O.jpg	02F_AN_O.jpg
383.157252073	1.864259005000008	face	n/a	0.0	0.8	n/a	n/a	385.021511078	385.025269985	386.021233082	394.420275927	MFZ_132.jpg	MFZ_132.jpg	MFZ_120.jpg
