onset	duration	trial_type	response_time	accuracy_binarized	tr_seconds	cueStartTime	cueEndTime	trialEndTime	fixStartTime	fixEndTime	runEndTime	stimLeft	stimTop	stimRight
11.100258112	1.9419739245999992	shape	1.66242599487	1.0	0.8	8.03846216202	11.0262570381	13.0422320366	13.0606231689	14.0414030552	n/a	oval-horizontal.bmp	oval-horizontal.bmp	oval-vertical.bmp
14.1772711277	1.8644988537000025	shape	1.07778191566	1.0	0.8	n/a	n/a	16.0417699814	16.0591130257	17.0402719975	n/a	oval-horizontal.bmp	oval-vertical.bmp	oval-vertical.bmp
17.1714670658	1.8697209357999969	shape	1.15827512741	1.0	0.8	n/a	n/a	19.0411880016	19.0585210323	20.0367801189	n/a	circle.bmp	circle.bmp	oval-vertical.bmp
20.1595549583	1.878114223499999	shape	0.887808084488	1.0	0.8	n/a	n/a	22.0376691818	22.0564651489	23.0399000645	n/a	circle.bmp	oval-vertical.bmp	oval-vertical.bmp
23.1748580933	1.8644089698	shape	0.887417078018	1.0	0.8	n/a	n/a	25.0392670631	25.057639122	26.0386400223	n/a	oval-horizontal.bmp	circle.bmp	circle.bmp
26.1743509769	1.8639941215999976	shape	0.88467001915	1.0	0.8	n/a	n/a	28.0383450985	28.0558371544	29.0374441147	n/a	oval-horizontal.bmp	oval-horizontal.bmp	circle.bmp
32.1125371456	1.9240298271	face	0.913021802902	1.0	0.8	29.1255321503	32.0362780094	34.0365669727	34.0543420315	35.0351750851	n/a	FAZ_23.jpg	FAZ_23.jpg	FAX_43.jpg
35.2140619755	1.8210539817999989	face	0.87791800499	1.0	0.8	n/a	n/a	37.0351159573	37.0536620617	38.0347101688	n/a	26M_FE_O.jpg	26M_FE_O.jpg	27M_FE_O.BMP
38.1873149872	1.8471250534000063	face	0.857769012451	1.0	0.8	n/a	n/a	40.0344400406	40.0520601273	41.0305011272	n/a	MFX_16.jpg	MFZ_50.jpg	MFZ_50.jpg
41.2171361446	1.8174760342000056	face	0.787990093231	1.0	0.8	n/a	n/a	43.0346121788	43.0517799854	44.0336000919	n/a	09F_AN_O.jpg	09F_AN_O.jpg	10F_AN_O.jpg
44.2185151577	1.8149478436000024	face	0.850677967072	1.0	0.8	n/a	n/a	46.0334630013	46.0516791344	47.0328371525	n/a	38M_AN_O.BMP	39M_AN_O.jpg	39M_AN_O.jpg
47.204885006	1.8269679546000008	face	0.981233119965	1.0	0.8	n/a	n/a	49.0318529606	49.0508539677	50.0317649841	n/a	FFZ_102.jpg	FFX_130.jpg	FFX_130.jpg
53.0837590694	1.9466679096999968	shape	0.750225067139	1.0	0.8	50.12738204	53.030534029	55.0304269791	55.0476651192	56.0296549797	n/a	oval-horizontal.bmp	oval-vertical.bmp	oval-vertical.bmp
56.1649520397	1.8637981415000056	shape	0.742996931076	1.0	0.8	n/a	n/a	58.0287501812	58.0471971035	59.0282261372	n/a	circle.bmp	oval-vertical.bmp	oval-vertical.bmp
59.1648311615	1.880563020700002	shape	1.13854503632	1.0	0.8	n/a	n/a	61.0453941822	61.0631320477	62.0410711765	n/a	oval-horizontal.bmp	oval-horizontal.bmp	oval-vertical.bmp
62.1778230667	1.8668890000000005	shape	1.07006311417	1.0	0.8	n/a	n/a	64.0447120667	64.0622320175	65.0442299843	n/a	oval-horizontal.bmp	oval-horizontal.bmp	circle.bmp
65.1799960136	1.8633270264000004	shape	0.837139129639	1.0	0.8	n/a	n/a	67.04332304	67.0614991188	68.0433299541	n/a	circle.bmp	circle.bmp	oval-vertical.bmp
68.1790640354	1.863722085999996	shape	0.735152006149	1.0	0.8	n/a	n/a	70.0427861214	70.0607039928	71.0415141582	n/a	oval-horizontal.bmp	circle.bmp	circle.bmp
74.1440291405	1.8972418307999988	face	1.50239706039	0.0	0.8	71.1390790939	74.0407781601	76.0412709713	76.0587780476	77.0399119854	n/a	03F_FE_O.jpg	05F_FE_O.jpg	05F_FE_O.jpg
77.2024691105	1.837058067299992	face	1.15971207619	1.0	0.8	n/a	n/a	79.0395271778	79.0571939945	80.0394141674	n/a	FAZ_32.jpg	FAZ_32.jpg	FAX_45.jpg
80.2037341595	1.831895828200004	face	n/a	0.0	0.8	n/a	n/a	82.0356299877	82.0533370972	83.0354471207	n/a	MAZ_128.jpg	MAZ_101.jpg	MAZ_101.jpg
83.2223050594	1.8163659572999933	face	1.1064851284	1.0	0.8	n/a	n/a	85.0386710167	85.0561649799	86.0381441116	n/a	11F_AN_O.jpg	11F_AN_O.jpg	12F_AN_O.jpg
86.2229020596	1.8146479129	face	1.07020902634	1.0	0.8	n/a	n/a	88.0375499725	88.0555009842	89.0371620655	n/a	26M_FE_O.jpg	33M_FE_O.jpg	33M_FE_O.jpg
89.2063679695	1.830090999600003	face	0.818320989609	1.0	0.8	n/a	n/a	91.0364589691	91.0554561615	92.035433054	n/a	MFZ_132.jpg	MFZ_132.jpg	MFZ_120.jpg
95.0874919891	1.9472579955999976	shape	0.987023115158	1.0	0.8	92.1327719688	95.0342731476	97.0347499847	97.0529899597	98.0338499546	n/a	circle.bmp	oval-vertical.bmp	oval-vertical.bmp
98.1696100235	1.8638341424999965	shape	0.957674980164	1.0	0.8	n/a	n/a	100.033444166	100.051635027	101.033413172	n/a	oval-horizontal.bmp	oval-horizontal.bmp	circle.bmp
101.180900097	1.8482699389999908	shape	0.80057311058	1.0	0.8	n/a	n/a	103.029170036	103.047914982	104.028897047	n/a	oval-horizontal.bmp	oval-vertical.bmp	oval-vertical.bmp
104.165902138	1.8664808269999893	shape	0.804012060165	1.0	0.8	n/a	n/a	106.032382965	106.050714016	107.031413078	n/a	oval-horizontal.bmp	circle.bmp	circle.bmp
107.184118032	1.8472681049999973	shape	0.920749902725	1.0	0.8	n/a	n/a	109.031386137	109.049385071	110.030975103	n/a	oval-horizontal.bmp	oval-horizontal.bmp	oval-vertical.bmp
110.183243036	1.8475310810000136	shape	0.784861087799	1.0	0.8	n/a	n/a	112.030774117	112.049131155	113.029659033	n/a	circle.bmp	circle.bmp	oval-vertical.bmp
116.105447054	1.9395129680000025	face	0.896585941315	1.0	0.8	113.130496025	116.028808117	118.044960022	118.063318014	119.044440985	n/a	FAZ_23.jpg	FAZ_23.jpg	FAX_43.jpg
119.223672152	1.820578812999997	face	0.761590003967	1.0	0.8	n/a	n/a	121.044250965	121.061944008	122.044183016	n/a	26M_FE_O.jpg	26M_FE_O.jpg	27M_FE_O.BMP
122.207728148	1.8328969469999947	face	0.836447000504	1.0	0.8	n/a	n/a	124.040625095	124.057975054	125.040094137	n/a	MFZ_50.jpg	MFZ_50.jpg	MFX_16.jpg
125.226224184	1.8169119359999968	face	1.08888196945	1.0	0.8	n/a	n/a	127.04313612	127.060794115	128.042763948	n/a	10F_AN_O.jpg	09F_AN_O.jpg	09F_AN_O.jpg
128.227504015	1.81467294700002	face	0.937385082245	1.0	0.8	n/a	n/a	130.042176962	130.060796022	131.040930033	n/a	38M_AN_O.BMP	39M_AN_O.jpg	39M_AN_O.jpg
131.213021994	1.8280181879999875	face	1.25120592117	1.0	0.8	n/a	n/a	133.041040182	133.059098005	134.040631056	n/a	FFZ_102.jpg	FFX_130.jpg	FFX_130.jpg
137.108211994	1.931234121000017	shape	0.969810009003	1.0	0.8	134.141939163	137.039788961	139.039446115	139.057257175	140.038184166	n/a	oval-horizontal.bmp	oval-horizontal.bmp	oval-vertical.bmp
140.201035023	1.8368630409999869	shape	0.825839042664	1.0	0.8	n/a	n/a	142.037898064	142.056480169	143.037480116	n/a	oval-horizontal.bmp	oval-vertical.bmp	oval-vertical.bmp
143.18581605	1.848716020000012	shape	0.920426845551	1.0	0.8	n/a	n/a	145.03453207	145.052529097	146.034406185	n/a	circle.bmp	circle.bmp	oval-vertical.bmp
146.170706034	1.865883112000006	shape	1.10570216179	1.0	0.8	n/a	n/a	148.036589146	148.054785967	149.036487103	n/a	circle.bmp	oval-vertical.bmp	oval-vertical.bmp
149.188593149	1.848011970999977	shape	0.819258928299	1.0	0.8	n/a	n/a	151.03660512	151.05384016	152.034646034	n/a	oval-horizontal.bmp	circle.bmp	circle.bmp
152.188007116	1.8472020629999968	shape	0.854636907578	1.0	0.8	n/a	n/a	154.035209179	154.053001165	155.033921003	n/a	oval-horizontal.bmp	oval-horizontal.bmp	circle.bmp
158.135969162	1.89723300899999	face	0.970154047012	1.0	0.8	155.137267113	158.032858133	160.033202171	160.050994158	161.03202796	n/a	20M_FE_O.jpg	21M_FE_O.jpg	21M_FE_O.jpg
161.227782965	1.8040561669999988	face	1.10973405838	1.0	0.8	n/a	n/a	163.031839132	163.049941063	164.031177998	n/a	01F_AN_O.jpg	07F_AN_O.jpg	07F_AN_O.jpg
164.196418047	1.8321819299999904	face	0.970432043076	1.0	0.8	n/a	n/a	166.028599977	166.046336174	167.028300047	n/a	FFX_139.jpg	FFZ_102.jpg	FFZ_102.jpg
167.231503963	1.7992260460000011	face	1.08832883835	1.0	0.8	n/a	n/a	169.030730009	169.048391104	170.030678034	n/a	23M_AN_O.jpg	23M_AN_O.jpg	22M_AN_O.jpg
170.199105024	1.8309879309999813	face	0.969959020615	1.0	0.8	n/a	n/a	172.030092955	172.048475981	173.029042959	n/a	MAZ_146.jpg	MAZ_146.jpg	MAX_233.jpg
173.231835127	1.7969629760000032	face	1.13648986816	1.0	0.8	n/a	n/a	175.028798103	175.046442986	176.044665098	n/a	15F_FE_O.jpg	15F_FE_O.jpg	16F_FE_O.jpg
179.096774101	1.9472649100000008	shape	1.13695812225	1.0	0.8	176.150402069	179.043357134	181.044039011	181.061680079	182.043032169	n/a	oval-horizontal.bmp	oval-vertical.bmp	oval-vertical.bmp
182.188621044	1.8533680440000069	shape	1.02732300758	1.0	0.8	n/a	n/a	184.041989088	184.060636997	185.042274952	n/a	circle.bmp	oval-vertical.bmp	oval-vertical.bmp
185.190358162	1.8481788630000155	shape	1.10385298729	1.0	0.8	n/a	n/a	187.038537025	187.056936026	188.038906097	n/a	oval-horizontal.bmp	oval-horizontal.bmp	oval-vertical.bmp
188.175435066	1.8661129479999945	shape	1.01917910576	1.0	0.8	n/a	n/a	190.041548014	190.05935216	191.041098118	n/a	oval-horizontal.bmp	oval-horizontal.bmp	circle.bmp
191.193582058	1.8473749160000068	shape	n/a	0.0	0.8	n/a	n/a	193.040956974	193.059111118	194.039419174	n/a	circle.bmp	circle.bmp	oval-vertical.bmp
194.191743135	1.847692013	shape	n/a	0.0	0.8	n/a	n/a	196.039435148	196.058504105	197.03789711	n/a	oval-horizontal.bmp	circle.bmp	circle.bmp
200.114459038	1.922958134999988	face	0.87819814682	1.0	0.8	197.149515152	200.037523031	202.037417173	202.054821968	203.037093163	n/a	FFX_54.jpg	FFX_54.jpg	FAX_51.jpg
203.217282057	1.819128035999995	face	0.859086036682	1.0	0.8	n/a	n/a	205.036410093	205.05457902	206.035638094	n/a	40M_FE_O.BMP	41M_FE_O.jpg	41M_FE_O.jpg
206.221436024	1.8119530669999904	face	0.904343128204	1.0	0.8	n/a	n/a	208.033389091	208.050827026	209.035577059	n/a	29M_AN_O.jpg	29M_AN_O.jpg	28M_AN_O.jpg
209.202890158	1.8320748799999933	face	0.88775396347	1.0	0.8	n/a	n/a	211.034965038	211.05358696	212.034609079	n/a	FFZ_18.jpg	FFZ_29.jpg	FFZ_29.jpg
212.237012148	1.7968688010000164	face	0.92031288147	1.0	0.8	n/a	n/a	214.033880949	214.051862001	215.033591032	n/a	19F_AN_O.jpg	19F_AN_O.jpg	09F_AN_O.jpg
215.205084085	1.8274059299999976	face	0.819714069366	1.0	0.8	n/a	n/a	217.032490015	217.050618172	218.032222986	n/a	MFZ_132.jpg	MFZ_7.jpg	MFZ_7.jpg
221.084764004	1.9461250300000188	shape	1.10246396065	1.0	0.8	218.180977106	221.031702042	223.030889034	223.049415112	224.030182123	n/a	circle.bmp	oval-vertical.bmp	oval-vertical.bmp
224.177410126	1.8533198829999835	shape	1.02562093735	1.0	0.8	n/a	n/a	226.030730009	226.04768014	227.029317141	n/a	oval-horizontal.bmp	oval-horizontal.bmp	circle.bmp
227.178349018	1.865622997000003	shape	0.770456075668	1.0	0.8	n/a	n/a	229.043972015	229.062428951	230.043681145	n/a	oval-horizontal.bmp	oval-vertical.bmp	oval-vertical.bmp
230.196254015	1.832726002000016	shape	1.27239513397	0.0	0.8	n/a	n/a	232.028980017	232.047486067	233.02838397	n/a	oval-horizontal.bmp	circle.bmp	circle.bmp
233.181096077	1.8477499480000008	shape	1.01931190491	1.0	0.8	n/a	n/a	235.028846025	235.046678066	236.043452024	n/a	oval-horizontal.bmp	oval-horizontal.bmp	oval-vertical.bmp
236.196778059	1.8462810519999948	shape	0.986827135086	1.0	0.8	n/a	n/a	238.043059111	238.061673164	239.042811155	n/a	circle.bmp	circle.bmp	oval-vertical.bmp
242.144857168	1.8967199330000144	face	1.10272502899	1.0	0.8	239.155058146	242.041980982	244.041577101	244.059787035	245.040836096	n/a	20M_FE_O.jpg	21M_FE_O.jpg	21M_FE_O.jpg
245.237554073	1.8035039909999853	face	0.809136152267	1.0	0.8	n/a	n/a	247.041058064	247.05903697	248.040227175	n/a	07F_AN_O.jpg	07F_AN_O.jpg	01F_AN_O.jpg
248.209378958	1.8285732269999928	face	1.18483614922	1.0	0.8	n/a	n/a	250.037952185	250.056135178	251.039790154	n/a	FFZ_102.jpg	FFZ_102.jpg	FFX_139.jpg
251.240936995	1.799339056000008	face	1.00522994995	1.0	0.8	n/a	n/a	253.040276051	253.05817914	254.03857708	n/a	22M_AN_O.jpg	23M_AN_O.jpg	23M_AN_O.jpg
254.208372116	1.829776049000003	face	0.951606035233	1.0	0.8	n/a	n/a	256.038148165	256.057125092	257.037331104	n/a	MAX_233.jpg	MAZ_146.jpg	MAZ_146.jpg
257.24029398	1.7972300050000172	face	1.06649112701	1.0	0.8	n/a	n/a	259.037523985	259.055448055	260.036431074	n/a	15F_FE_O.jpg	15F_FE_O.jpg	16F_FE_O.jpg
263.096583128	1.9389059540000064	shape	n/a	0.0	0.8	260.148961067	263.03629303	265.035489082	265.054169178	266.035065174	n/a	oval-horizontal.bmp	oval-horizontal.bmp	oval-vertical.bmp
266.182031155	1.8532090179999727	shape	0.992613792419	1.0	0.8	n/a	n/a	268.035240173	268.053313017	269.033892155	n/a	oval-horizontal.bmp	oval-vertical.bmp	oval-vertical.bmp
269.199620962	1.832114219999994	shape	0.904034137726	1.0	0.8	n/a	n/a	271.031735182	271.050498009	272.03372407	n/a	circle.bmp	circle.bmp	oval-vertical.bmp
272.201871157	1.8316860199999496	shape	0.871248006821	1.0	0.8	n/a	n/a	274.033557177	274.051548004	275.032968998	n/a	circle.bmp	oval-vertical.bmp	oval-vertical.bmp
275.20501399	1.8279340270000264	shape	0.898962974548	1.0	0.8	n/a	n/a	277.032948017	277.051429987	278.031828165	n/a	oval-horizontal.bmp	circle.bmp	circle.bmp
278.183820963	1.8475751880000075	shape	0.952592849731	1.0	0.8	n/a	n/a	280.031396151	280.049283981	281.030122995	n/a	oval-horizontal.bmp	oval-horizontal.bmp	circle.bmp
284.107769012	1.9213941099999945	face	1.52850389481	1.0	0.8	281.145179033	284.02970314	286.029163122	286.047386169	287.028628111	n/a	FFZ_18.jpg	FAZ_129.jpg	FAZ_129.jpg
287.242959023	1.8026461599999948	face	1.00925397873	1.0	0.8	n/a	n/a	289.045605183	289.063328028	290.02819109	n/a	20M_FE_O.jpg	24M_FE_O.jpg	24M_FE_O.jpg
290.210913181	1.832119941999963	face	0.971262216568	1.0	0.8	n/a	n/a	292.043033123	292.060740948	293.044612169	n/a	FAZ_23.jpg	FAX_25.jpg	FAX_25.jpg
293.245326042	1.7992839810000305	face	0.905241966248	1.0	0.8	n/a	n/a	295.044610023	295.062100172	296.044139147	n/a	33M_FE_O.jpg	33M_FE_O.jpg	35M_FE_O.jpg
296.262799978	1.7802290920000132	face	0.951428890228	1.0	0.8	n/a	n/a	298.04302907	298.060772181	299.042019129	n/a	01F_AN_O.jpg	01F_AN_O.jpg	02F_AN_O.jpg
299.216072083	1.8261950010000303	face	1.19847512245	1.0	0.8	n/a	n/a	301.042267084	301.060129166	302.041476011	n/a	MFZ_132.jpg	MFZ_132.jpg	MFZ_120.jpg
305.092822075	1.9478220940000028	shape	1.22688889503	1.0	0.8	302.153207064	305.04054904	307.040644169	307.057724953	308.039078951	n/a	oval-horizontal.bmp	oval-vertical.bmp	oval-vertical.bmp
308.186485052	1.852756023999973	shape	0.825803995132	1.0	0.8	n/a	n/a	310.039241076	310.057520151	311.03599906	n/a	circle.bmp	oval-vertical.bmp	oval-vertical.bmp
311.191173077	1.848222971000041	shape	1.03790688515	1.0	0.8	n/a	n/a	313.039396048	313.05688405	314.038251162	n/a	oval-horizontal.bmp	oval-horizontal.bmp	oval-vertical.bmp
314.257117033	1.7811300750000214	shape	1.17087101936	1.0	0.8	n/a	n/a	316.038247108	316.056485176	317.037436008	n/a	oval-horizontal.bmp	oval-horizontal.bmp	circle.bmp
317.189298153	1.847551823000004	shape	n/a	0.0	0.8	n/a	n/a	319.036849976	319.055284977	320.036630154	n/a	circle.bmp	circle.bmp	oval-vertical.bmp
320.20489502	1.8306031220000136	shape	0.952356100082	1.0	0.8	n/a	n/a	322.035498142	322.054023981	323.035066128	n/a	oval-horizontal.bmp	circle.bmp	circle.bmp
326.136175156	1.897823810000034	face	0.942134857178	1.0	0.8	323.160998106	326.034173012	328.033998966	328.052051067	329.033324003	n/a	17F_FE_O.jpg	18F_FE_O.jpg	18F_FE_O.jpg
329.247138977	1.7858920099999978	face	0.741788864136	1.0	0.8	n/a	n/a	331.033030987	331.051234007	332.028995991	n/a	42M_AN_O.jpg	43M_AN_O.jpg	43M_AN_O.jpg
332.23490715	1.797678947999998	face	0.93744802475	1.0	0.8	n/a	n/a	334.032586098	334.050801992	335.032638073	n/a	31M_FE_O.jpg	31M_FE_O.jpg	32M_FE_O.jpg
335.234276056	1.7975740439999868	face	n/a	0.0	0.8	n/a	n/a	337.0318501	337.049698114	338.031325102	n/a	FAZ_212.jpg	FFZ_236.jpg	FFZ_236.jpg
338.23387599	1.7967150210000111	face	0.82018494606	1.0	0.8	n/a	n/a	340.030591011	340.048452139	341.029843092	n/a	06F_FE_O.jpg	06F_FE_O.jpg	08F_FE_O.jpg
341.215468168	1.813856840000028	face	0.903597831726	1.0	0.8	n/a	n/a	343.029325008	343.048017025	344.02899909	n/a	MAZ_128.jpg	MAZ_128.jpg	MAX_39.jpg
347.107043982	1.9374091619999945	shape	0.993375062943	1.0	0.8	344.148889065	347.045113087	349.044453144	349.062828064	350.044236183	n/a	circle.bmp	oval-vertical.bmp	oval-vertical.bmp
350.20817399	1.8357670310000456	shape	0.871788024902	1.0	0.8	n/a	n/a	352.043941021	352.061418056	353.040551186	n/a	oval-horizontal.bmp	oval-horizontal.bmp	circle.bmp
353.20973897	1.833573102999992	shape	0.787782907486	1.0	0.8	n/a	n/a	355.043312073	355.061275959	356.042356014	n/a	oval-horizontal.bmp	oval-vertical.bmp	oval-vertical.bmp
356.211120129	1.8310699460000133	shape	0.920572042465	1.0	0.8	n/a	n/a	358.042190075	358.060250044	359.041710138	n/a	oval-horizontal.bmp	circle.bmp	circle.bmp
359.213581085	1.8279109000000064	shape	0.818284034729	1.0	0.8	n/a	n/a	361.041491985	361.059513092	362.040732145	n/a	oval-horizontal.bmp	oval-horizontal.bmp	oval-vertical.bmp
362.210046053	1.8296949859999927	shape	n/a	0.0	0.8	n/a	n/a	364.039741039	364.057842016	365.038892984	n/a	circle.bmp	circle.bmp	oval-vertical.bmp
368.117262125	1.9207520489999863	face	0.859537124634	1.0	0.8	365.164314985	368.038371086	370.038014174	370.05629015	371.037323952	n/a	FFZ_18.jpg	FAZ_129.jpg	FAZ_129.jpg
371.25225997	1.7851150029999872	face	0.839248180389	1.0	0.8	n/a	n/a	373.037374973	373.05556798	374.034103155	n/a	20M_FE_O.jpg	24M_FE_O.jpg	24M_FE_O.jpg
374.220424175	1.8161149029999704	face	0.936602115631	1.0	0.8	n/a	n/a	376.036539078	376.054586172	377.036946058	n/a	FAZ_23.jpg	FAX_25.jpg	FAX_25.jpg
377.255633116	1.7808868879999975	face	0.820791006088	1.0	0.8	n/a	n/a	379.036520004	379.054744005	380.035326004	n/a	33M_FE_O.jpg	33M_FE_O.jpg	35M_FE_O.jpg
380.254471064	1.7802150250000182	face	0.935209989548	1.0	0.8	n/a	n/a	382.034686089	382.053630114	383.034438133	n/a	01F_AN_O.jpg	01F_AN_O.jpg	02F_AN_O.jpg
383.220515013	1.8129470349999792	face	n/a	0.0	0.8	n/a	n/a	385.033462048	385.052097082	386.033300161	394.430914164	MFZ_132.jpg	MFZ_132.jpg	MFZ_120.jpg
