onset	duration	trial_type	response_time	accuracy_binarized	tr_seconds	cueStartTime	cueEndTime	trialEndTime	fixStartTime	fixEndTime	runEndTime	stimLeft	stimTop	stimRight
11.0629460812	1.969479084	shape	1.53614211082	1.0	0.8	8.0267469883	11.0167241096	13.0324251652	13.0371761322	14.0325109959	n/a	oval-horizontal.bmp	oval-horizontal.bmp	oval-vertical.bmp
14.1539940834	1.8785789012999992	shape	1.21765494347	1.0	0.8	n/a	n/a	16.0325729847	16.036534071	17.0314161777	n/a	oval-horizontal.bmp	oval-vertical.bmp	oval-vertical.bmp
17.1353590488	1.896485090299997	shape	1.02131414413	1.0	0.8	n/a	n/a	19.0318441391	19.0352671146	20.031083107	n/a	circle.bmp	circle.bmp	oval-vertical.bmp
20.1336791515	1.8976528645	shape	0.920538187027	1.0	0.8	n/a	n/a	22.031332016	22.0348930359	23.0308730602	n/a	circle.bmp	oval-vertical.bmp	oval-vertical.bmp
23.1344840527	1.897110939000001	shape	0.870926856995	1.0	0.8	n/a	n/a	25.0315949917	25.0352649689	26.030725956	n/a	oval-horizontal.bmp	circle.bmp	circle.bmp
26.1296839714	1.9010300636000004	shape	0.970242023468	1.0	0.8	n/a	n/a	28.030714035	28.0349121094	29.0300371647	n/a	oval-horizontal.bmp	oval-horizontal.bmp	circle.bmp
32.0968589783	1.933531045900004	face	0.983728170395	1.0	0.8	29.1094770432	32.0297470093	34.0303900242	34.0348920822	35.0293490887	n/a	FAZ_23.jpg	FAZ_23.jpg	FAX_43.jpg
35.1736681461	1.856599807800002	face	1.03063201904	1.0	0.8	n/a	n/a	37.0302679539	37.0338411331	38.0295071602	n/a	26M_FE_O.jpg	26M_FE_O.jpg	27M_FE_O.BMP
38.1563870907	1.873085975599999	face	1.18079304695	1.0	0.8	n/a	n/a	40.0294730663	40.0333750248	41.0296320915	n/a	MFX_16.jpg	MFZ_50.jpg	MFZ_50.jpg
41.1822841167	1.847133874899996	face	1.0865790844	1.0	0.8	n/a	n/a	43.0294179916	43.0331721306	44.0281801224	n/a	09F_AN_O.jpg	09F_AN_O.jpg	10F_AN_O.jpg
44.1658771038	1.8732049465000031	face	1.03098106384	1.0	0.8	n/a	n/a	46.0390820503	46.0426931381	47.0375320911	n/a	38M_AN_O.BMP	39M_AN_O.jpg	39M_AN_O.jpg
47.1623549461	1.8662531375999976	face	1.32105588913	1.0	0.8	n/a	n/a	49.0286080837	49.0323181152	50.0279240608	n/a	FFZ_102.jpg	FFX_130.jpg	FFX_130.jpg
53.0656950474	1.962129116	shape	0.870949983597	1.0	0.8	50.1033761501	53.0274910927	55.0278241634	55.0328609943	56.0266139507	n/a	oval-horizontal.bmp	oval-vertical.bmp	oval-vertical.bmp
56.1277990341	1.8996160031	shape	0.672665119171	1.0	0.8	n/a	n/a	58.0274150372	58.0312230587	59.0270650387	n/a	circle.bmp	oval-vertical.bmp	oval-vertical.bmp
59.1272611618	1.8997249602999984	shape	0.875644922256	1.0	0.8	n/a	n/a	61.0269861221	61.0306839943	62.0262889862	n/a	oval-horizontal.bmp	oval-horizontal.bmp	oval-vertical.bmp
62.1275150776	1.8995079993999937	shape	0.887970924377	1.0	0.8	n/a	n/a	64.027023077	64.0307049751	65.0261690617	n/a	oval-horizontal.bmp	oval-horizontal.bmp	circle.bmp
65.1297750473	1.896330118199998	shape	0.738237142563	1.0	0.8	n/a	n/a	67.0261051655	67.0297169685	68.0256650448	n/a	circle.bmp	circle.bmp	oval-vertical.bmp
68.1272900105	1.898864984499994	shape	0.611312866211	1.0	0.8	n/a	n/a	70.026154995	70.029747963	71.0254280567	n/a	oval-horizontal.bmp	circle.bmp	circle.bmp
74.1090121269	1.9275529385	face	1.22124385834	1.0	0.8	71.1034259796	74.0252220631	76.0365650654	76.0412020683	77.0248329639	n/a	03F_FE_O.jpg	05F_FE_O.jpg	05F_FE_O.jpg
77.1562809944	1.8792459964999888	face	0.903872966766	1.0	0.8	n/a	n/a	79.0355269909	79.0391149521	80.0354399681	n/a	FAZ_32.jpg	FAZ_32.jpg	FAX_45.jpg
80.1587750912	1.8768830299	face	1.48759102821	1.0	0.8	n/a	n/a	82.0356581211	82.0396039486	83.0353350639	n/a	MAZ_128.jpg	MAZ_101.jpg	MAZ_101.jpg
83.1833460331	1.852607965499999	face	1.03709506989	1.0	0.8	n/a	n/a	85.0359539986	85.0395309925	86.0353691578	n/a	11F_AN_O.jpg	11F_AN_O.jpg	12F_AN_O.jpg
86.1838941574	1.840592861199994	face	0.975821018219	1.0	0.8	n/a	n/a	88.0244870186	88.0285639763	89.0236320496	n/a	26M_FE_O.jpg	33M_FE_O.jpg	33M_FE_O.jpg
89.1507389545	1.8729619979999936	face	1.10939598083	1.0	0.8	n/a	n/a	91.0237009525	91.0272321701	92.022411108	n/a	MFZ_132.jpg	MFZ_132.jpg	MFZ_120.jpg
95.0601551533	1.9630830288	shape	1.02496290207	1.0	0.8	92.1006720066	95.0228719711	97.0232381821	97.0278019905	98.0225059986	n/a	circle.bmp	oval-vertical.bmp	oval-vertical.bmp
98.1286730766	1.8937859533999983	shape	0.637089014053	1.0	0.8	n/a	n/a	100.02245903	100.026139975	101.022214174	n/a	oval-horizontal.bmp	oval-horizontal.bmp	circle.bmp
101.12707305	1.8953089709999915	shape	0.740823984146	1.0	0.8	n/a	n/a	103.022382021	103.025894165	104.020586014	n/a	oval-horizontal.bmp	oval-vertical.bmp	oval-vertical.bmp
104.130680084	1.891252041000001	shape	0.773883104324	1.0	0.8	n/a	n/a	106.021932125	106.025513172	107.022009134	n/a	oval-horizontal.bmp	circle.bmp	circle.bmp
107.127457142	1.8941509720000056	shape	0.754147052765	1.0	0.8	n/a	n/a	109.021608114	109.02562499	110.021631956	n/a	oval-horizontal.bmp	oval-horizontal.bmp	oval-vertical.bmp
110.129692078	1.8914439670000007	shape	0.788097858429	1.0	0.8	n/a	n/a	112.021136045	112.024886131	113.024696112	n/a	circle.bmp	circle.bmp	oval-vertical.bmp
116.091669083	1.9294090270000053	face	1.17270112038	1.0	0.8	113.104197979	116.03767705	118.02107811	118.025663137	119.020548105	n/a	FAZ_23.jpg	FAZ_23.jpg	FAX_43.jpg
119.166064978	1.8548371790000004	face	1.00633692741	1.0	0.8	n/a	n/a	121.020902157	121.02453804	122.020303011	n/a	26M_FE_O.jpg	26M_FE_O.jpg	27M_FE_O.BMP
122.146545172	1.890305995999995	face	0.972742080688	1.0	0.8	n/a	n/a	124.036851168	124.040425062	125.036101103	n/a	MFZ_50.jpg	MFZ_50.jpg	MFX_16.jpg
125.188881159	1.848179817000002	face	1.13929104805	1.0	0.8	n/a	n/a	127.037060976	127.040812016	128.035796165	n/a	10F_AN_O.jpg	09F_AN_O.jpg	09F_AN_O.jpg
128.174607038	1.861573934999996	face	0.988136053085	1.0	0.8	n/a	n/a	130.036180973	130.04005003	131.035248995	n/a	38M_AN_O.BMP	39M_AN_O.jpg	39M_AN_O.jpg
131.160778999	1.875419139999991	face	1.22104811668	1.0	0.8	n/a	n/a	133.036198139	133.039788961	134.035213947	n/a	FFZ_102.jpg	FFX_130.jpg	FFX_130.jpg
137.073137999	1.9618711469999823	shape	0.721322059631	1.0	0.8	134.117035151	137.035068035	139.035009146	139.039535999	140.034559965	n/a	oval-horizontal.bmp	oval-horizontal.bmp	oval-vertical.bmp
140.143342972	1.8915250299999968	shape	0.73686003685	1.0	0.8	n/a	n/a	142.034868002	142.038843155	143.033693075	n/a	oval-horizontal.bmp	oval-vertical.bmp	oval-vertical.bmp
143.143141031	1.89160704599999	shape	0.788146018982	1.0	0.8	n/a	n/a	145.034748077	145.038323164	146.034325123	n/a	circle.bmp	circle.bmp	oval-vertical.bmp
146.139549971	1.8938829899999805	shape	0.854353189468	1.0	0.8	n/a	n/a	148.033432961	148.037000179	149.033252001	n/a	circle.bmp	oval-vertical.bmp	oval-vertical.bmp
149.14133215	1.892562865999992	shape	0.920287132263	1.0	0.8	n/a	n/a	151.033895016	151.037466049	152.032758951	n/a	oval-horizontal.bmp	circle.bmp	circle.bmp
152.141699076	1.8915119170000023	shape	0.935465097427	1.0	0.8	n/a	n/a	154.033210993	154.036662102	155.032932043	n/a	oval-horizontal.bmp	oval-horizontal.bmp	circle.bmp
158.121176958	1.911948203999998	face	1.21958589554	1.0	0.8	155.117416143	158.03246212	160.033125162	160.03776598	161.032500982	n/a	20M_FE_O.jpg	21M_FE_O.jpg	21M_FE_O.jpg
161.192502975	1.8405001170000048	face	1.03713989258	1.0	0.8	n/a	n/a	163.033003092	163.03659296	164.032049179	n/a	01F_AN_O.jpg	07F_AN_O.jpg	07F_AN_O.jpg
164.156823158	1.875030995000003	face	1.08801913261	1.0	0.8	n/a	n/a	166.031854153	166.035506964	167.031325102	n/a	FFX_139.jpg	FFZ_102.jpg	FFZ_102.jpg
167.181805134	1.8500909800000045	face	1.26896882057	1.0	0.8	n/a	n/a	169.031896114	169.035411119	170.031079054	n/a	23M_AN_O.jpg	23M_AN_O.jpg	22M_AN_O.jpg
170.159446955	1.8725302219999944	face	1.02218198776	1.0	0.8	n/a	n/a	172.031977177	172.035567999	173.030608177	n/a	MAZ_146.jpg	MAZ_146.jpg	MAX_233.jpg
173.181704044	1.8496739869999883	face	1.51960396767	1.0	0.8	n/a	n/a	175.031378031	175.034993172	176.030343056	n/a	15F_FE_O.jpg	15F_FE_O.jpg	16F_FE_O.jpg
179.069060087	1.961714983000008	shape	0.836659193039	1.0	0.8	176.115499973	179.030296087	181.03077507	181.035454035	182.029773951	n/a	oval-horizontal.bmp	oval-vertical.bmp	oval-vertical.bmp
182.14131999	1.8887319570000043	shape	0.682833909988	1.0	0.8	n/a	n/a	184.030051947	184.033797979	185.029582024	n/a	circle.bmp	oval-vertical.bmp	oval-vertical.bmp
185.138313055	1.8918011190000072	shape	0.752846002579	1.0	0.8	n/a	n/a	187.030114174	187.033686161	188.029000998	n/a	oval-horizontal.bmp	oval-horizontal.bmp	oval-vertical.bmp
188.140305996	1.8890550140000075	shape	0.663625001907	1.0	0.8	n/a	n/a	190.02936101	190.032758951	191.028701067	n/a	oval-horizontal.bmp	oval-horizontal.bmp	circle.bmp
191.139467001	1.8893890379999905	shape	1.49849891663	1.0	0.8	n/a	n/a	193.028856039	193.032478094	194.0286901	n/a	circle.bmp	circle.bmp	oval-vertical.bmp
194.143764019	1.8852040769999967	shape	1.05442500114	1.0	0.8	n/a	n/a	196.028968096	196.033058167	197.028054953	n/a	oval-horizontal.bmp	circle.bmp	circle.bmp
200.084046125	1.9447000030000083	face	0.903216123581	1.0	0.8	197.114796162	200.027407169	202.028746128	202.033195972	203.027450085	n/a	FFX_54.jpg	FFX_54.jpg	FAX_51.jpg
203.174690962	1.8531529900000123	face	0.930968046188	1.0	0.8	n/a	n/a	205.027843952	205.031434059	206.026921988	n/a	40M_FE_O.BMP	41M_FE_O.jpg	41M_FE_O.jpg
206.180854082	1.8468000889999985	face	1.01709198952	1.0	0.8	n/a	n/a	208.027654171	208.031548977	209.026781082	n/a	29M_AN_O.jpg	29M_AN_O.jpg	28M_AN_O.jpg
209.16199708	1.865273951999996	face	1.01988911629	1.0	0.8	n/a	n/a	211.027271032	211.031057119	212.026792049	n/a	FFZ_18.jpg	FFZ_29.jpg	FFZ_29.jpg
212.185897112	1.8409428600000128	face	0.862394094467	1.0	0.8	n/a	n/a	214.026839972	214.030627966	215.026410103	n/a	19F_AN_O.jpg	19F_AN_O.jpg	09F_AN_O.jpg
215.163016081	1.8641479009999955	face	0.935086965561	1.0	0.8	n/a	n/a	217.027163982	217.030718088	218.025689125	n/a	MFZ_132.jpg	MFZ_7.jpg	MFZ_7.jpg
221.064044952	1.9616122250000103	shape	0.75045800209	1.0	0.8	218.114071131	221.02621913	223.025657177	223.030375004	224.024579048	n/a	circle.bmp	oval-vertical.bmp	oval-vertical.bmp
224.13780117	1.8881378180000183	shape	0.760021924973	1.0	0.8	n/a	n/a	226.025938988	226.030045986	227.024569035	n/a	oval-horizontal.bmp	oval-horizontal.bmp	circle.bmp
227.137300968	1.8874931339999816	shape	0.660629987717	1.0	0.8	n/a	n/a	229.024794102	229.028521061	230.024716139	n/a	oval-horizontal.bmp	oval-vertical.bmp	oval-vertical.bmp
230.13738203	1.886858941000014	shape	0.812555074692	1.0	0.8	n/a	n/a	232.024240971	232.028331041	233.024006128	n/a	oval-horizontal.bmp	circle.bmp	circle.bmp
233.140011072	1.8847808840000084	shape	0.695003032684	1.0	0.8	n/a	n/a	235.024791956	235.028759003	236.023420095	n/a	oval-horizontal.bmp	oval-horizontal.bmp	oval-vertical.bmp
236.136918068	1.886862992999994	shape	0.66374707222	1.0	0.8	n/a	n/a	238.023781061	238.02738905	239.022916079	n/a	circle.bmp	circle.bmp	oval-vertical.bmp
242.099101067	1.9246180050000128	face	1.20977091789	1.0	0.8	239.119323969	242.023297071	244.023719072	244.028640985	245.023005009	n/a	20M_FE_O.jpg	21M_FE_O.jpg	21M_FE_O.jpg
245.185943127	1.837615013000004	face	0.876389026642	1.0	0.8	n/a	n/a	247.02355814	247.02710104	248.022540092	n/a	07F_AN_O.jpg	07F_AN_O.jpg	01F_AN_O.jpg
248.156690121	1.865985870000003	face	0.79194188118	1.0	0.8	n/a	n/a	250.022675991	250.02631402	251.022070169	n/a	FFZ_102.jpg	FFZ_102.jpg	FFX_139.jpg
251.182337999	1.8403551579999944	face	1.092856884	1.0	0.8	n/a	n/a	253.022693157	253.026330948	254.02157402	n/a	22M_AN_O.jpg	23M_AN_O.jpg	23M_AN_O.jpg
254.159703016	1.8620560170000149	face	1.01913714409	1.0	0.8	n/a	n/a	256.021759033	256.025383949	257.021499157	n/a	MAX_233.jpg	MAZ_146.jpg	MAZ_146.jpg
257.177345037	1.8445260529999807	face	1.47111082077	1.0	0.8	n/a	n/a	259.02187109	259.025253057	260.021518946	n/a	15F_FE_O.jpg	15F_FE_O.jpg	16F_FE_O.jpg
263.05816412	1.96346282899998	shape	0.809037923813	1.0	0.8	260.113274097	263.020811081	265.021626949	265.02621007	266.020312071	n/a	oval-horizontal.bmp	oval-horizontal.bmp	oval-vertical.bmp
266.137597084	1.899205923000011	shape	0.891252040863	1.0	0.8	n/a	n/a	268.036803007	268.04035902	269.036854029	n/a	oval-horizontal.bmp	oval-vertical.bmp	oval-vertical.bmp
269.15556407	1.8812820910000028	shape	0.724900960922	1.0	0.8	n/a	n/a	271.036846161	271.04056406	272.036211014	n/a	circle.bmp	circle.bmp	oval-vertical.bmp
272.158820152	1.8776528840000424	shape	0.504185199738	1.0	0.8	n/a	n/a	274.036473036	274.040169954	275.036231995	n/a	circle.bmp	oval-vertical.bmp	oval-vertical.bmp
275.152557135	1.883517980000022	shape	0.608321905136	1.0	0.8	n/a	n/a	277.036075115	277.039635181	278.035807133	n/a	oval-horizontal.bmp	circle.bmp	circle.bmp
278.152088165	1.8838529589999664	shape	0.674564123154	1.0	0.8	n/a	n/a	280.035941124	280.039401054	281.035633087	n/a	oval-horizontal.bmp	oval-horizontal.bmp	circle.bmp
284.094691992	1.9407770630000407	face	0.939718008041	1.0	0.8	281.130422115	284.035603046	286.035469055	286.04027915	287.03481698	n/a	FFZ_18.jpg	FAZ_129.jpg	FAZ_129.jpg
287.197191954	1.8377392290000216	face	0.888672828674	1.0	0.8	n/a	n/a	289.034931183	289.038491964	290.034234047	n/a	20M_FE_O.jpg	24M_FE_O.jpg	24M_FE_O.jpg
290.172777176	1.8621327879999967	face	0.922461032867	1.0	0.8	n/a	n/a	292.034909964	292.038542032	293.034049988	n/a	FAZ_23.jpg	FAX_25.jpg	FAX_25.jpg
293.199517012	1.834849119000012	face	0.904345035553	1.0	0.8	n/a	n/a	295.034366131	295.037747145	296.033630133	n/a	33M_FE_O.jpg	33M_FE_O.jpg	35M_FE_O.jpg
296.200919151	1.832541943000024	face	0.807080984116	1.0	0.8	n/a	n/a	298.033461094	298.03703618	299.032824993	n/a	01F_AN_O.jpg	01F_AN_O.jpg	02F_AN_O.jpg
299.167524099	1.8659808639999933	face	0.7215321064	1.0	0.8	n/a	n/a	301.033504963	301.037172079	302.032425165	n/a	MFZ_132.jpg	MFZ_132.jpg	MFZ_120.jpg
305.07043314	1.961908817000051	shape	0.803825855255	1.0	0.8	302.122586966	305.031924963	307.032341957	307.036786079	308.031731129	n/a	oval-horizontal.bmp	oval-vertical.bmp	oval-vertical.bmp
308.145238161	1.8867318629999656	shape	0.734375	1.0	0.8	n/a	n/a	310.031970024	310.035513163	311.031419992	n/a	circle.bmp	oval-vertical.bmp	oval-vertical.bmp
311.142363071	1.88934397700001	shape	0.737336874008	1.0	0.8	n/a	n/a	313.031707048	313.03531599	314.030099154	n/a	oval-horizontal.bmp	oval-horizontal.bmp	oval-vertical.bmp
314.143208027	1.8885250089999768	shape	0.619740962982	1.0	0.8	n/a	n/a	316.031733036	316.035187006	317.031304121	n/a	oval-horizontal.bmp	oval-horizontal.bmp	circle.bmp
317.148220062	1.882463932000008	shape	0.820449829102	1.0	0.8	n/a	n/a	319.030683994	319.034180164	320.029966116	n/a	circle.bmp	circle.bmp	oval-vertical.bmp
320.145488024	1.884959936000029	shape	0.670087099075	1.0	0.8	n/a	n/a	322.03044796	322.033967018	323.029924154	n/a	oval-horizontal.bmp	circle.bmp	circle.bmp
326.113193989	1.9170501229999672	face	1.15320110321	1.0	0.8	323.119131088	326.029879093	328.030244112	328.034801006	329.029636145	n/a	17F_FE_O.jpg	18F_FE_O.jpg	18F_FE_O.jpg
329.187214136	1.842528819999984	face	0.83700299263	1.0	0.8	n/a	n/a	331.029742956	331.033244133	332.028928995	n/a	42M_AN_O.jpg	43M_AN_O.jpg	43M_AN_O.jpg
332.184887171	1.8447079659999872	face	0.920375823975	1.0	0.8	n/a	n/a	334.029595137	334.033079147	335.028644085	n/a	31M_FE_O.jpg	31M_FE_O.jpg	32M_FE_O.jpg
335.166089058	1.8634939190000068	face	0.836902856827	1.0	0.8	n/a	n/a	337.029582977	337.033080101	338.028547049	n/a	FAZ_212.jpg	FFZ_236.jpg	FFZ_236.jpg
338.188949108	1.839700937000032	face	1.05026888847	1.0	0.8	n/a	n/a	340.028650045	340.03215003	341.027800083	n/a	06F_FE_O.jpg	06F_FE_O.jpg	08F_FE_O.jpg
341.164294958	1.8640730379999584	face	0.787109136581	1.0	0.8	n/a	n/a	343.028367996	343.03197813	344.027415037	n/a	MAZ_128.jpg	MAZ_128.jpg	MAX_39.jpg
347.063692093	1.96385407400004	shape	0.818022012711	1.0	0.8	344.118857145	347.027429104	349.027546167	349.031927109	350.026857138	n/a	circle.bmp	oval-vertical.bmp	oval-vertical.bmp
350.143567085	1.8835830690000528	shape	0.819494962692	1.0	0.8	n/a	n/a	352.027150154	352.031080008	353.026646137	n/a	oval-horizontal.bmp	oval-horizontal.bmp	circle.bmp
353.148193121	1.878607034999959	shape	0.67045211792	1.0	0.8	n/a	n/a	355.026800156	355.030503035	356.02640295	n/a	oval-horizontal.bmp	oval-vertical.bmp	oval-vertical.bmp
356.146635056	1.8798999780000256	shape	0.688047170639	1.0	0.8	n/a	n/a	358.026535034	358.030056	359.026049137	n/a	oval-horizontal.bmp	circle.bmp	circle.bmp
359.146696091	1.879409073999966	shape	0.653743982315	1.0	0.8	n/a	n/a	361.026105165	361.029602051	362.02583909	n/a	oval-horizontal.bmp	oval-horizontal.bmp	oval-vertical.bmp
362.144006968	1.881421089000014	shape	0.687077999115	1.0	0.8	n/a	n/a	364.025428057	364.02930212	365.025271177	n/a	circle.bmp	circle.bmp	oval-vertical.bmp
368.081268072	1.9443969729999824	face	0.736330986023	1.0	0.8	365.121742964	368.024916172	370.025665045	370.030203104	371.024818182	n/a	FFZ_18.jpg	FAZ_129.jpg	FAZ_129.jpg
371.185553074	1.8396539690000395	face	0.997627973557	1.0	0.8	n/a	n/a	373.025207043	373.028721094	374.024544001	n/a	20M_FE_O.jpg	24M_FE_O.jpg	24M_FE_O.jpg
374.160902977	1.8641080860000443	face	0.704960107803	1.0	0.8	n/a	n/a	376.025011063	376.028980017	377.024271965	n/a	FAZ_23.jpg	FAX_25.jpg	FAX_25.jpg
377.18514204	1.8394329550000064	face	0.697780132294	1.0	0.8	n/a	n/a	379.024574995	379.028335094	380.023658037	n/a	33M_FE_O.jpg	33M_FE_O.jpg	35M_FE_O.jpg
380.189476013	1.8352921009999927	face	0.9468729496	1.0	0.8	n/a	n/a	382.024768114	382.028362036	383.022258043	n/a	01F_AN_O.jpg	01F_AN_O.jpg	02F_AN_O.jpg
383.161815166	1.8621900090000167	face	0.786812067032	1.0	0.8	n/a	n/a	385.024005175	385.027560949	386.023106098	394.421998978	MFZ_132.jpg	MFZ_132.jpg	MFZ_120.jpg
