onset	duration	trial_type	response_time	accuracy_binarized	tr_seconds	cueStartTime	cueEndTime	trialEndTime	fixStartTime	fixEndTime	runEndTime	stimLeft	stimTop	stimRight
11.0531051159	1.969079971300001	shape	0.903043985367	1.0	0.8	8.0224750042	11.0054039955	13.0221850872	13.0268011093	14.0216259956	n/a	oval-horizontal.bmp	oval-horizontal.bmp	oval-vertical.bmp
14.1428289413	1.8828921319000005	shape	0.986924409868	0.0	0.8	n/a	n/a	16.0257210732	16.0293929577	17.0260410309	n/a	oval-horizontal.bmp	oval-vertical.bmp	oval-vertical.bmp
17.1285440922	1.8976609707000025	shape	0.73500585556	1.0	0.8	n/a	n/a	19.0262050629	19.0301139355	20.0253469944	n/a	circle.bmp	circle.bmp	oval-vertical.bmp
20.1242749691	1.9016680717000007	shape	0.79167509079	1.0	0.8	n/a	n/a	22.0259430408	22.0295660496	23.0252690315	n/a	circle.bmp	oval-vertical.bmp	oval-vertical.bmp
23.124215126	1.9013509751000013	shape	0.757515907288	1.0	0.8	n/a	n/a	25.0255661011	25.0291600227	26.0249660015	n/a	oval-horizontal.bmp	circle.bmp	circle.bmp
26.1216590405	1.9034500122000004	shape	0.940145015717	1.0	0.8	n/a	n/a	28.0251090527	28.0291099548	29.0251030922	n/a	oval-horizontal.bmp	oval-horizontal.bmp	circle.bmp
32.088835001	1.9360740185000007	face	1.05658578873	1.0	0.8	29.1026551723	32.0247659683	34.0249090195	34.0296990871	35.0240361691	n/a	FAZ_23.jpg	FAZ_23.jpg	FAX_43.jpg
35.1672971249	1.8574688433999995	face	0.740078926086	1.0	0.8	n/a	n/a	37.0247659683	37.0283551216	38.0236661434	n/a	26M_FE_O.jpg	26M_FE_O.jpg	27M_FE_O.BMP
38.1465351582	1.876964807499995	face	0.739972114563	1.0	0.8	n/a	n/a	40.0234999657	40.0275609493	41.0233500004	n/a	MFX_16.jpg	MFZ_50.jpg	MFZ_50.jpg
41.1741549969	1.8498749732999968	face	0.806637048721	1.0	0.8	n/a	n/a	43.0240299702	43.0276610851	44.0226261616	n/a	09F_AN_O.jpg	09F_AN_O.jpg	10F_AN_O.jpg
44.1609280109	1.862483024599996	face	0.655601978302	1.0	0.8	n/a	n/a	46.0234110355	46.0273661613	47.0227351189	n/a	38M_AN_O.BMP	39M_AN_O.jpg	39M_AN_O.jpg
47.1436581612	1.8798849582000017	face	0.722731113434	1.0	0.8	n/a	n/a	49.0235431194	49.0271401405	50.0222051144	n/a	FFZ_102.jpg	FFX_130.jpg	FFX_130.jpg
53.058863163	1.9631958008000008	shape	0.82150387764	1.0	0.8	50.0967121124	53.0219869614	55.0220589638	55.0266640186	56.0219869614	n/a	oval-horizontal.bmp	oval-vertical.bmp	oval-vertical.bmp
56.121833086	1.899874925599996	shape	0.738654851913	1.0	0.8	n/a	n/a	58.0217080116	58.0253429413	59.0214309692	n/a	circle.bmp	oval-vertical.bmp	oval-vertical.bmp
59.1222829819	1.899719953500004	shape	0.970274925232	1.0	0.8	n/a	n/a	61.0220029354	61.0257279873	62.0212230682	n/a	oval-horizontal.bmp	oval-horizontal.bmp	oval-vertical.bmp
62.1205260754	1.900752067500001	shape	0.903678894043	1.0	0.8	n/a	n/a	64.0212781429	64.0252640247	65.0204911232	n/a	oval-horizontal.bmp	oval-horizontal.bmp	circle.bmp
65.1214761734	1.8999087810999955	shape	0.753472089767	1.0	0.8	n/a	n/a	67.0213849545	67.0249760151	68.0209851265	n/a	circle.bmp	circle.bmp	oval-vertical.bmp
68.1251261234	1.8953518868000003	shape	1.03562808037	1.0	0.8	n/a	n/a	70.0204780102	70.0240681171	71.0193841457	n/a	oval-horizontal.bmp	circle.bmp	circle.bmp
74.110448122	1.909904003200012	face	1.06986880302	1.0	0.8	71.0976769924	74.0199990273	76.0203521252	76.0251390934	77.0193841457	n/a	03F_FE_O.jpg	05F_FE_O.jpg	05F_FE_O.jpg
77.1424720287	1.877488136300002	face	0.771430015564	1.0	0.8	n/a	n/a	79.019960165	79.0235550404	80.0190119743	n/a	FAZ_32.jpg	FAZ_32.jpg	FAX_45.jpg
80.1397900581	1.8795940875999968	face	0.656401872635	1.0	0.8	n/a	n/a	82.0193841457	82.0229251385	83.0192711353	n/a	MAZ_128.jpg	MAZ_101.jpg	MAZ_101.jpg
83.1696519852	1.8496839999999963	face	1.21753621101	1.0	0.8	n/a	n/a	85.0193359852	85.0230600834	86.018654108	n/a	11F_AN_O.jpg	11F_AN_O.jpg	12F_AN_O.jpg
86.1668710709	1.852180004099992	face	0.899729967117	1.0	0.8	n/a	n/a	88.019051075	88.0227169991	89.018805027	n/a	26M_FE_O.jpg	33M_FE_O.jpg	33M_FE_O.jpg
89.1434941292	1.8751378059000103	face	0.952471971512	1.0	0.8	n/a	n/a	91.0186319351	91.0223269463	92.0176560879	n/a	MFZ_132.jpg	MFZ_132.jpg	MFZ_120.jpg
95.0557010174	1.9626381397000048	shape	0.852713108063	1.0	0.8	92.0977401733	95.0176670551	97.0183391571	97.0229699612	98.0169620514	n/a	circle.bmp	oval-vertical.bmp	oval-vertical.bmp
98.1195211411	1.897373914900001	shape	0.635647058487	1.0	0.8	n/a	n/a	100.016895056	100.021041155	101.016055107	n/a	oval-horizontal.bmp	oval-horizontal.bmp	circle.bmp
101.118556023	1.898875951000008	shape	0.770468950272	1.0	0.8	n/a	n/a	103.017431974	103.021109104	104.015803099	n/a	oval-horizontal.bmp	oval-vertical.bmp	oval-vertical.bmp
104.123109102	1.8934898379999936	shape	0.719300031662	1.0	0.8	n/a	n/a	106.01659894	106.020236015	107.015869141	n/a	oval-horizontal.bmp	circle.bmp	circle.bmp
107.122863054	1.8937530519999937	shape	0.81903886795	1.0	0.8	n/a	n/a	109.016616106	109.020403147	110.015543938	n/a	oval-horizontal.bmp	oval-horizontal.bmp	oval-vertical.bmp
110.117908955	1.8978772159999977	shape	1.0198969841	1.0	0.8	n/a	n/a	112.015786171	112.019742012	113.01514101	n/a	circle.bmp	circle.bmp	oval-vertical.bmp
116.068166018	1.947474002000007	face	0.819683074951	1.0	0.8	113.095852137	116.014683962	118.01564002	118.020190954	119.014592171	n/a	FAZ_23.jpg	FAZ_23.jpg	FAX_43.jpg
119.152513981	1.862668037000006	face	0.753512144089	1.0	0.8	n/a	n/a	121.015182018	121.018856049	122.014217138	n/a	26M_FE_O.jpg	26M_FE_O.jpg	27M_FE_O.BMP
122.139074087	1.876148939000004	face	0.920135974884	1.0	0.8	n/a	n/a	124.015223026	124.019531965	125.01385808	n/a	MFZ_50.jpg	MFZ_50.jpg	MFX_16.jpg
125.168771982	1.846099138	face	0.852635860443	1.0	0.8	n/a	n/a	127.01487112	127.018835068	128.013389111	n/a	10F_AN_O.jpg	09F_AN_O.jpg	09F_AN_O.jpg
128.152296066	1.86180090900001	face	0.736505031586	1.0	0.8	n/a	n/a	130.014096975	130.017830133	131.013689995	n/a	38M_AN_O.BMP	39M_AN_O.jpg	39M_AN_O.jpg
131.14152503	1.8727960589999952	face	0.895780801773	1.0	0.8	n/a	n/a	133.014321089	133.018002033	134.013497114	n/a	FFZ_102.jpg	FFX_130.jpg	FFX_130.jpg
137.068374157	1.9620139600000075	shape	0.603499174118	1.0	0.8	134.095524073	137.029957056	139.030388117	139.034954071	140.02898407	n/a	oval-horizontal.bmp	oval-horizontal.bmp	oval-vertical.bmp
140.135388136	1.8939459320000085	shape	0.703665971756	1.0	0.8	n/a	n/a	142.029334068	142.033027172	143.028470039	n/a	oval-horizontal.bmp	oval-vertical.bmp	oval-vertical.bmp
143.134963036	1.894037007999998	shape	0.820973157883	1.0	0.8	n/a	n/a	145.029000044	145.032953024	146.028475046	n/a	circle.bmp	circle.bmp	oval-vertical.bmp
146.133917093	1.894346952999996	shape	1.45446896553	1.0	0.8	n/a	n/a	148.028264046	148.032566071	149.028565168	n/a	circle.bmp	oval-vertical.bmp	oval-vertical.bmp
149.13409996	1.8942739970000275	shape	0.670512914658	1.0	0.8	n/a	n/a	151.028373957	151.031835079	152.027357101	n/a	oval-horizontal.bmp	circle.bmp	circle.bmp
152.137346029	1.89123392099998	shape	0.69290304184	1.0	0.8	n/a	n/a	154.02857995	154.032282114	155.027408123	n/a	oval-horizontal.bmp	oval-horizontal.bmp	circle.bmp
158.11008215	1.9176759709999944	face	1.51085400581	1.0	0.8	155.110710144	158.026939154	160.027758121	160.032525063	161.026458979	n/a	20M_FE_O.jpg	21M_FE_O.jpg	21M_FE_O.jpg
161.185734034	1.84138107299998	face	1.02592420578	1.0	0.8	n/a	n/a	163.027115107	163.030540943	164.026714087	n/a	01F_AN_O.jpg	07F_AN_O.jpg	07F_AN_O.jpg
164.157111168	1.8695948120000023	face	1.26089119911	1.0	0.8	n/a	n/a	166.02670598	166.030297041	167.025795937	n/a	FFX_139.jpg	FFZ_102.jpg	FFZ_102.jpg
167.183695078	1.8430759910000063	face	0.853996038437	1.0	0.8	n/a	n/a	169.026771069	169.030428171	170.026105165	n/a	23M_AN_O.jpg	23M_AN_O.jpg	22M_AN_O.jpg
170.154749155	1.8653388019999968	face	1.13621306419	1.0	0.8	n/a	n/a	172.020087957	172.024032116	173.019261122	n/a	MAZ_146.jpg	MAZ_146.jpg	MAX_233.jpg
173.175538063	1.8446450229999984	face	1.42118787766	1.0	0.8	n/a	n/a	175.020183086	175.023831129	176.01941514	n/a	15F_FE_O.jpg	15F_FE_O.jpg	16F_FE_O.jpg
179.056563139	1.968381882000017	shape	1.07584786415	1.0	0.8	176.103602171	179.019396067	181.024945021	181.029422045	182.024076939	n/a	oval-horizontal.bmp	oval-vertical.bmp	oval-vertical.bmp
182.132928133	1.891957997999981	shape	0.720118999481	1.0	0.8	n/a	n/a	184.024886131	184.028565168	185.024584055	n/a	circle.bmp	oval-vertical.bmp	oval-vertical.bmp
185.134407043	1.8900320529999988	shape	0.773933887482	1.0	0.8	n/a	n/a	187.024439096	187.028088093	188.023399115	n/a	oval-horizontal.bmp	oval-horizontal.bmp	oval-vertical.bmp
188.138185978	1.8856270310000127	shape	1.06931686401	1.0	0.8	n/a	n/a	190.023813009	190.028073072	191.023102999	n/a	oval-horizontal.bmp	oval-horizontal.bmp	circle.bmp
191.133893013	1.8894410129999808	shape	0.790456056595	1.0	0.8	n/a	n/a	193.023334026	193.026847124	194.023115158	n/a	circle.bmp	circle.bmp	oval-vertical.bmp
194.13184309	1.890853882000016	shape	0.734156131744	1.0	0.8	n/a	n/a	196.022696972	196.026726007	197.022460938	n/a	oval-horizontal.bmp	circle.bmp	circle.bmp
200.079223156	1.9434440139999936	face	0.985943078995	1.0	0.8	197.107918978	200.022530079	202.02266717	202.027513981	203.021476984	n/a	FFX_54.jpg	FFX_54.jpg	FAX_51.jpg
203.165739059	1.856652021999992	face	1.15634202957	1.0	0.8	n/a	n/a	205.022391081	205.026000977	206.021538019	n/a	40M_FE_O.BMP	41M_FE_O.jpg	41M_FE_O.jpg
206.176450014	1.8453481199999828	face	0.756271123886	1.0	0.8	n/a	n/a	208.021798134	208.025484085	209.02115202	n/a	29M_AN_O.jpg	29M_AN_O.jpg	28M_AN_O.jpg
209.152647018	1.8688840869999976	face	0.90655708313	1.0	0.8	n/a	n/a	211.021531105	211.025190115	212.019866943	n/a	FFZ_18.jpg	FFZ_29.jpg	FFZ_29.jpg
212.177133083	1.8447098739999888	face	0.671214818954	1.0	0.8	n/a	n/a	214.021842957	214.025557041	215.02060008	n/a	19F_AN_O.jpg	19F_AN_O.jpg	09F_AN_O.jpg
215.15030098	1.8707091800000053	face	0.703917980194	1.0	0.8	n/a	n/a	217.02101016	217.02483201	218.020231009	n/a	MFZ_132.jpg	MFZ_7.jpg	MFZ_7.jpg
221.057644129	1.9630818359999864	shape	0.588778972626	1.0	0.8	218.113237143	221.01986599	223.020725965	223.025284052	224.019405127	n/a	circle.bmp	oval-vertical.bmp	oval-vertical.bmp
224.12948513	1.8897759919999828	shape	0.737960100174	1.0	0.8	n/a	n/a	226.019261122	226.022871971	227.019339085	n/a	oval-horizontal.bmp	oval-horizontal.bmp	circle.bmp
227.131333113	1.888731955999987	shape	0.518458127975	1.0	0.8	n/a	n/a	229.020065069	229.023705006	230.018717051	n/a	oval-horizontal.bmp	oval-vertical.bmp	oval-vertical.bmp
230.131518126	1.8873360149999885	shape	1.05452513695	1.0	0.8	n/a	n/a	232.018854141	232.023396015	233.018440962	n/a	oval-horizontal.bmp	circle.bmp	circle.bmp
233.13211894	1.886737108999995	shape	1.28647303581	1.0	0.8	n/a	n/a	235.018856049	235.022467136	236.018424034	n/a	oval-horizontal.bmp	oval-horizontal.bmp	oval-vertical.bmp
236.129376173	1.88912582399999	shape	0.853585958481	1.0	0.8	n/a	n/a	238.018501997	238.022125006	239.018150091	n/a	circle.bmp	circle.bmp	oval-vertical.bmp
242.09949708	1.9188320640000145	face	1.45279693604	1.0	0.8	239.107334137	242.017086029	244.018329144	244.023322105	245.01692915	n/a	20M_FE_O.jpg	21M_FE_O.jpg	21M_FE_O.jpg
245.180562019	1.837137937999984	face	1.26824688911	1.0	0.8	n/a	n/a	247.017699957	247.02133894	248.016677141	n/a	07F_AN_O.jpg	07F_AN_O.jpg	01F_AN_O.jpg
248.150588036	1.8669669620000209	face	0.66924405098	1.0	0.8	n/a	n/a	250.017554998	250.02115798	251.01641798	n/a	FFZ_102.jpg	FFZ_102.jpg	FFX_139.jpg
251.170892	1.8466529849999915	face	1.07037305832	1.0	0.8	n/a	n/a	253.017544985	253.021140099	254.01672411	n/a	22M_AN_O.jpg	23M_AN_O.jpg	23M_AN_O.jpg
254.149444103	1.867462874000012	face	0.870269060135	1.0	0.8	n/a	n/a	256.016906977	256.020997047	257.015897036	n/a	MAX_233.jpg	MAZ_146.jpg	MAZ_146.jpg
257.172170162	1.8446779250000416	face	1.3856818676	1.0	0.8	n/a	n/a	259.016848087	259.020475149	260.01621294	n/a	15F_FE_O.jpg	15F_FE_O.jpg	16F_FE_O.jpg
263.052670002	1.96296715699998	shape	1.08694410324	1.0	0.8	260.107167959	263.015259981	265.015637159	265.020120144	266.014893055	n/a	oval-horizontal.bmp	oval-horizontal.bmp	oval-vertical.bmp
266.128504038	1.886608123999963	shape	0.903520107269	1.0	0.8	n/a	n/a	268.015112162	268.019061089	269.014497042	n/a	oval-horizontal.bmp	oval-vertical.bmp	oval-vertical.bmp
269.12996006	1.8849060539999984	shape	0.669541120529	1.0	0.8	n/a	n/a	271.014866114	271.018356085	272.013422012	n/a	circle.bmp	circle.bmp	oval-vertical.bmp
272.129215002	1.8856561179999856	shape	0.787380933762	1.0	0.8	n/a	n/a	274.01487112	274.018519163	275.014157057	n/a	circle.bmp	oval-vertical.bmp	oval-vertical.bmp
275.129976988	1.884382008999978	shape	n/a	0.0	0.8	n/a	n/a	277.014358997	277.018058062	278.013406038	n/a	oval-horizontal.bmp	circle.bmp	circle.bmp
278.131385088	1.8827159400000253	shape	0.853470087051	1.0	0.8	n/a	n/a	280.014101028	280.018109083	281.013607979	n/a	oval-horizontal.bmp	oval-horizontal.bmp	circle.bmp
284.093569994	1.9367029669999736	face	0.753171205521	1.0	0.8	281.10790801	284.030226946	286.030272961	286.034893036	287.02939105	n/a	FFZ_18.jpg	FAZ_129.jpg	FAZ_129.jpg
287.187615156	1.8421638010000263	face	1.182336092	1.0	0.8	n/a	n/a	289.029778957	289.033482075	290.028712988	n/a	20M_FE_O.jpg	24M_FE_O.jpg	24M_FE_O.jpg
290.16250205	1.8671588899999847	face	n/a	0.0	0.8	n/a	n/a	292.02966094	292.033413172	293.028954983	n/a	FAZ_23.jpg	FAX_25.jpg	FAX_25.jpg
293.192557096	1.836619854000048	face	n/a	0.0	0.8	n/a	n/a	295.02917695	295.032974958	296.028342009	n/a	33M_FE_O.jpg	33M_FE_O.jpg	35M_FE_O.jpg
296.194235086	1.8348619939999933	face	1.31911301613	1.0	0.8	n/a	n/a	298.02909708	298.032766104	299.028390169	n/a	01F_AN_O.jpg	01F_AN_O.jpg	02F_AN_O.jpg
299.164742947	1.8636050220000016	face	0.86959695816	1.0	0.8	n/a	n/a	301.028347969	301.032292128	302.027601957	n/a	MFZ_132.jpg	MFZ_132.jpg	MFZ_120.jpg
305.065710068	1.961971043999995	shape	0.853404998779	1.0	0.8	302.121526957	305.0280931	307.027681112	307.032377005	308.027059078	n/a	oval-horizontal.bmp	oval-vertical.bmp	oval-vertical.bmp
308.146193027	1.881602049000037	shape	0.836390018463	1.0	0.8	n/a	n/a	310.027795076	310.031569958	311.026286125	n/a	circle.bmp	oval-vertical.bmp	oval-vertical.bmp
311.145558119	1.8812880510000127	shape	0.90398812294	1.0	0.8	n/a	n/a	313.02684617	313.030544996	314.026103973	n/a	oval-horizontal.bmp	oval-horizontal.bmp	oval-vertical.bmp
314.14500308	1.8814029700000103	shape	0.802187204361	1.0	0.8	n/a	n/a	316.02640605	316.030473948	317.025681019	n/a	oval-horizontal.bmp	oval-horizontal.bmp	circle.bmp
317.14330101	1.8830499649999977	shape	1.10385394096	1.0	0.8	n/a	n/a	319.026350975	319.030390024	320.025513172	n/a	circle.bmp	circle.bmp	oval-vertical.bmp
320.144236088	1.88160204899998	shape	0.837290048599	1.0	0.8	n/a	n/a	322.025838137	322.029461145	323.025140047	n/a	oval-horizontal.bmp	circle.bmp	circle.bmp
326.111212015	1.9132580760000333	face	n/a	0.0	0.8	323.122204065	326.025086164	328.024470091	328.031414986	329.024618149	n/a	17F_FE_O.jpg	18F_FE_O.jpg	18F_FE_O.jpg
329.188460112	1.8365719310000368	face	0.9949259758	1.0	0.8	n/a	n/a	331.025032043	331.028890133	332.023455143	n/a	42M_AN_O.jpg	43M_AN_O.jpg	43M_AN_O.jpg
332.187397003	1.8376009469999983	face	1.07713198662	1.0	0.8	n/a	n/a	334.02499795	334.028610945	335.023736954	n/a	31M_FE_O.jpg	31M_FE_O.jpg	32M_FE_O.jpg
335.163983107	1.8601808540000209	face	0.735816001892	1.0	0.8	n/a	n/a	337.024163961	337.027810097	338.023674011	n/a	FAZ_212.jpg	FFZ_236.jpg	FFZ_236.jpg
338.191681147	1.8327569960000003	face	1.236536026	1.0	0.8	n/a	n/a	340.024438143	340.028140068	341.02314806	n/a	06F_FE_O.jpg	06F_FE_O.jpg	08F_FE_O.jpg
341.162363052	1.860872984000025	face	0.986922025681	1.0	0.8	n/a	n/a	343.023236036	343.027065039	344.022848129	n/a	MAZ_128.jpg	MAZ_128.jpg	MAX_39.jpg
347.062216043	1.9609761240000123	shape	0.903939008713	1.0	0.8	344.122835159	347.022595167	349.023192167	349.027709007	350.02227211	n/a	circle.bmp	oval-vertical.bmp	oval-vertical.bmp
350.14260006	1.8792979709999715	shape	0.953086853027	1.0	0.8	n/a	n/a	352.021898031	352.02553916	353.021593094	n/a	oval-horizontal.bmp	oval-horizontal.bmp	circle.bmp
353.141769171	1.8800158500000064	shape	1.26061201096	1.0	0.8	n/a	n/a	355.021785021	355.025474072	356.021911144	n/a	oval-horizontal.bmp	oval-vertical.bmp	oval-vertical.bmp
356.14872098	1.8729631900000072	shape	0.738728046417	1.0	0.8	n/a	n/a	358.02168417	358.025390148	359.021147966	n/a	oval-horizontal.bmp	circle.bmp	circle.bmp
359.144375086	1.8767659659999936	shape	n/a	0.0	0.8	n/a	n/a	361.021141052	361.025068998	362.020801067	n/a	oval-horizontal.bmp	oval-horizontal.bmp	oval-vertical.bmp
362.145652056	1.8751389979999544	shape	1.43697690964	1.0	0.8	n/a	n/a	364.020791054	364.024435997	365.020382166	n/a	circle.bmp	circle.bmp	oval-vertical.bmp
368.078138113	1.9429428579999808	face	0.669882059097	1.0	0.8	365.121042967	368.020461082	370.021080971	370.02564311	371.01977396	n/a	FFZ_18.jpg	FAZ_129.jpg	FAZ_129.jpg
371.187438965	1.8328549859999723	face	1.47124481201	0.0	0.8	n/a	n/a	373.020293951	373.024136066	374.020113945	n/a	20M_FE_O.jpg	24M_FE_O.jpg	24M_FE_O.jpg
374.164124966	1.8558499810000053	face	0.801697969437	1.0	0.8	n/a	n/a	376.019974947	376.023627043	377.018985033	n/a	FAZ_23.jpg	FAX_25.jpg	FAX_25.jpg
377.184278011	1.8352651600000056	face	1.23945498466	1.0	0.8	n/a	n/a	379.019543171	379.023146152	380.018774033	n/a	33M_FE_O.jpg	33M_FE_O.jpg	35M_FE_O.jpg
380.184314966	1.8352391720000008	face	1.37105202675	1.0	0.8	n/a	n/a	382.019554138	382.023179054	383.018278122	n/a	01F_AN_O.jpg	01F_AN_O.jpg	02F_AN_O.jpg
383.161713123	1.857161044999998	face	1.28900098801	1.0	0.8	n/a	n/a	385.018874168	385.022634029	386.018277168	394.417495012	MFZ_132.jpg	MFZ_132.jpg	MFZ_120.jpg
