onset	duration	trial_type	response_time	accuracy_binarized	tr_seconds	cueStartTime	cueEndTime	trialEndTime	fixStartTime	fixEndTime	runEndTime	stimLeft	stimTop	stimRight
11.0928189754	1.9435369969000007	shape	0.831825971603	1.0	0.8	8.0289618969	11.0197758675	13.0363559723	13.0523998737	14.0350008011	n/a	oval-horizontal.bmp	oval-horizontal.bmp	oval-vertical.bmp
14.1613478661	1.8737809658	shape	0.794809818268	1.0	0.8	n/a	n/a	16.0351288319	16.0511288643	17.0346689224	n/a	oval-horizontal.bmp	oval-vertical.bmp	oval-vertical.bmp
17.1452519894	1.8884158134000013	shape	0.806800127029	1.0	0.8	n/a	n/a	19.0336678028	19.0508308411	20.0338149071	n/a	circle.bmp	circle.bmp	oval-vertical.bmp
20.1467199326	1.8840689658999992	shape	0.903109073639	1.0	0.8	n/a	n/a	22.0307888985	22.046795845	23.0331819057	n/a	circle.bmp	oval-vertical.bmp	oval-vertical.bmp
23.1493279934	1.8839499949999985	shape	0.688083171844	1.0	0.8	n/a	n/a	25.0332779884	25.0494909286	26.0316669941	n/a	oval-horizontal.bmp	circle.bmp	circle.bmp
26.1498608589	1.882210969900001	shape	0.735561847687	1.0	0.8	n/a	n/a	28.0320718288	28.0489900112	29.0311598778	n/a	oval-horizontal.bmp	oval-horizontal.bmp	circle.bmp
32.097137928	1.933316945999998	face	0.853394031525	1.0	0.8	29.1091878414	32.030258894	34.030454874	34.0457079411	35.0280778408	n/a	FAZ_23.jpg	FAZ_23.jpg	FAX_43.jpg
35.2130248547	1.816446065899996	face	0.875759840012	1.0	0.8	n/a	n/a	37.0294709206	37.0454537868	38.027410984	n/a	26M_FE_O.jpg	26M_FE_O.jpg	27M_FE_O.BMP
38.1618418694	1.8658349513999968	face	0.825168132782	1.0	0.8	n/a	n/a	40.0276768208	40.0446138382	41.0272729397	n/a	MFX_16.jpg	MFZ_50.jpg	MFZ_50.jpg
41.1916968822	1.832631111200001	face	0.80046415329	1.0	0.8	n/a	n/a	43.0243279934	43.0416259766	44.0269129276	n/a	09F_AN_O.jpg	09F_AN_O.jpg	10F_AN_O.jpg
44.1755318642	1.8513660430999928	face	1.11997318268	1.0	0.8	n/a	n/a	46.0268979073	46.0431258678	47.0263848305	n/a	38M_AN_O.BMP	39M_AN_O.jpg	39M_AN_O.jpg
47.160795927	1.8652050496	face	0.89938211441	1.0	0.8	n/a	n/a	49.0260009766	49.0429799557	50.0246949196	n/a	FFZ_102.jpg	FFX_130.jpg	FFX_130.jpg
53.0746657848	1.948926210400004	shape	0.784328937531	1.0	0.8	50.1067788601	53.0238618851	55.0235919952	55.0402779579	56.039675951	n/a	oval-horizontal.bmp	oval-vertical.bmp	oval-vertical.bmp
56.1483469009	1.890558004399999	shape	0.593262910843	1.0	0.8	n/a	n/a	58.0389049053	58.0559878349	59.0381448269	n/a	circle.bmp	oval-vertical.bmp	oval-vertical.bmp
59.1508758068	1.8876340388999964	shape	0.809438943863	1.0	0.8	n/a	n/a	61.0385098457	61.0546379089	62.0376439095	n/a	oval-horizontal.bmp	oval-horizontal.bmp	oval-vertical.bmp
62.1525359154	1.8831100463999988	shape	0.770327091217	1.0	0.8	n/a	n/a	64.0356459618	64.051692009	65.0369489193	n/a	oval-horizontal.bmp	oval-horizontal.bmp	circle.bmp
65.1531178951	1.8842329979	shape	0.654579877853	1.0	0.8	n/a	n/a	67.037350893	67.0538749695	68.0366709232	n/a	circle.bmp	circle.bmp	oval-vertical.bmp
68.1537809372	1.881995916400001	shape	0.785887956619	1.0	0.8	n/a	n/a	70.0357768536	70.0527029037	71.0359759331	n/a	oval-horizontal.bmp	circle.bmp	circle.bmp
74.1255009174	1.90953397749999	face	0.846396923065	1.0	0.8	71.1141328812	74.0344789028	76.0350348949	76.0509839058	77.0329749584	n/a	03F_FE_O.jpg	05F_FE_O.jpg	05F_FE_O.jpg
77.1671409607	1.865856885900001	face	0.776827096939	1.0	0.8	n/a	n/a	79.0329978466	79.0502839088	80.032684803	n/a	FAZ_32.jpg	FAZ_32.jpg	FAX_45.jpg
80.1613109112	1.870343923500002	face	1.27500391006	1.0	0.8	n/a	n/a	82.0316548347	82.0490298271	83.028826952	n/a	MAZ_128.jpg	MAZ_101.jpg	MAZ_101.jpg
83.1827018261	1.8472311496999936	face	0.753761053085	1.0	0.8	n/a	n/a	85.0299329758	85.0461008549	86.0313568115	n/a	11F_AN_O.jpg	11F_AN_O.jpg	12F_AN_O.jpg
86.1811289787	1.8501768112000008	face	0.670892000198	1.0	0.8	n/a	n/a	88.0313057899	88.0478858948	89.0297949314	n/a	26M_FE_O.jpg	33M_FE_O.jpg	33M_FE_O.jpg
89.1646258831	1.8656680584000045	face	0.751496076584	1.0	0.8	n/a	n/a	91.0302939415	91.0463328362	92.0287737846	n/a	MFZ_132.jpg	MFZ_132.jpg	MFZ_120.jpg
95.0794699192	1.948906898500013	shape	0.71940612793	1.0	0.8	92.1100728512	95.0279068947	97.0283768177	97.0451579094	98.0275278091	n/a	circle.bmp	oval-vertical.bmp	oval-vertical.bmp
98.1449038982	1.882316112799998	shape	0.643887996674	1.0	0.8	n/a	n/a	100.027220011	100.043511868	101.026080847	n/a	oval-horizontal.bmp	oval-horizontal.bmp	circle.bmp
101.139419794	1.8868930339999963	shape	0.625025987625	1.0	0.8	n/a	n/a	103.026312828	103.043385983	104.026110888	n/a	oval-horizontal.bmp	oval-vertical.bmp	oval-vertical.bmp
104.139921904	1.884089945999989	shape	0.837513208389	1.0	0.8	n/a	n/a	106.02401185	106.039860964	107.025240898	n/a	oval-horizontal.bmp	circle.bmp	circle.bmp
107.141757965	1.8834619520000049	shape	0.736228942871	1.0	0.8	n/a	n/a	109.025219917	109.041803837	110.024634838	n/a	oval-horizontal.bmp	oval-horizontal.bmp	oval-vertical.bmp
110.141592979	1.8821768760000024	shape	0.633595943451	1.0	0.8	n/a	n/a	112.023769855	112.040675879	113.039783001	n/a	circle.bmp	circle.bmp	oval-vertical.bmp
116.10599184	1.9329631330000008	face	0.727516174316	1.0	0.8	113.122685909	116.038364887	118.038954973	118.054968834	119.03802681	n/a	FAZ_23.jpg	FAZ_23.jpg	FAX_43.jpg
119.180821896	1.8572039600000068	face	0.812101840973	1.0	0.8	n/a	n/a	121.038025856	121.054166794	122.03745079	n/a	26M_FE_O.jpg	26M_FE_O.jpg	27M_FE_O.BMP
122.166030884	1.8710010050000108	face	0.724094867706	1.0	0.8	n/a	n/a	124.037031889	124.053783894	125.033459902	n/a	MFZ_50.jpg	MFZ_50.jpg	MFX_16.jpg
125.200493813	1.835600137	face	0.869647026062	1.0	0.8	n/a	n/a	127.03609395	127.052834988	128.035089016	n/a	10F_AN_O.jpg	09F_AN_O.jpg	09F_AN_O.jpg
128.186482906	1.8493349559999783	face	1.23383712769	1.0	0.8	n/a	n/a	130.035817862	130.052488804	131.034185886	n/a	38M_AN_O.BMP	39M_AN_O.jpg	39M_AN_O.jpg
131.169416904	1.8651819229999944	face	1.01536798477	1.0	0.8	n/a	n/a	133.034598827	133.050884008	134.03332901	n/a	FFZ_102.jpg	FFX_130.jpg	FFX_130.jpg
137.083441019	1.9494459630000165	shape	0.728339910507	1.0	0.8	134.120445013	137.033044815	139.032886982	139.049074888	140.031388998	n/a	oval-horizontal.bmp	oval-horizontal.bmp	oval-vertical.bmp
140.148963928	1.8827688700000067	shape	0.644629955292	1.0	0.8	n/a	n/a	142.031732798	142.048442841	143.031508923	n/a	oval-horizontal.bmp	oval-vertical.bmp	oval-vertical.bmp
143.148935795	1.8819930550000088	shape	0.690596103668	1.0	0.8	n/a	n/a	145.03092885	145.047258854	146.027656794	n/a	circle.bmp	circle.bmp	oval-vertical.bmp
146.144526958	1.8852200510000048	shape	0.701443195343	1.0	0.8	n/a	n/a	148.029747009	148.046882868	149.029685974	n/a	circle.bmp	oval-vertical.bmp	oval-vertical.bmp
149.145728827	1.8840131750000069	shape	0.704060077667	1.0	0.8	n/a	n/a	151.029742002	151.045953989	152.029122829	n/a	oval-horizontal.bmp	circle.bmp	circle.bmp
152.146351814	1.8818130499999768	shape	0.648885965347	1.0	0.8	n/a	n/a	154.028164864	154.044337988	155.028108835	n/a	oval-horizontal.bmp	oval-horizontal.bmp	circle.bmp
158.111085892	1.9156849379999985	face	1.46856403351	1.0	0.8	155.116336823	158.026848793	160.02677083	160.043151855	161.025890827	n/a	20M_FE_O.jpg	21M_FE_O.jpg	21M_FE_O.jpg
161.193619967	1.8321838370000023	face	0.84228682518	1.0	0.8	n/a	n/a	163.025803804	163.041844845	164.025442839	n/a	01F_AN_O.jpg	07F_AN_O.jpg	07F_AN_O.jpg
164.160611868	1.8638169760000096	face	0.788837194443	1.0	0.8	n/a	n/a	166.024428844	166.04161191	167.038405895	n/a	FFX_139.jpg	FFZ_102.jpg	FFZ_102.jpg
167.208328962	1.8157758720000168	face	0.669773101807	1.0	0.8	n/a	n/a	169.024104834	169.040372849	170.024101019	n/a	23M_AN_O.jpg	23M_AN_O.jpg	22M_AN_O.jpg
170.173732996	1.8662919999999872	face	0.686196088791	1.0	0.8	n/a	n/a	172.040024996	172.056505919	173.039716959	n/a	MAZ_146.jpg	MAZ_146.jpg	MAX_233.jpg
173.206745863	1.832509993999992	face	0.953220844269	1.0	0.8	n/a	n/a	175.039255857	175.055601835	176.038008928	n/a	15F_FE_O.jpg	15F_FE_O.jpg	16F_FE_O.jpg
179.088601828	1.948090076	shape	0.692124128342	1.0	0.8	176.126102924	179.037637949	181.036691904	181.053130865	182.036253929	n/a	oval-horizontal.bmp	oval-vertical.bmp	oval-vertical.bmp
182.154517889	1.8817911149999984	shape	0.726588010788	1.0	0.8	n/a	n/a	184.036309004	184.052332878	185.035823822	n/a	circle.bmp	oval-vertical.bmp	oval-vertical.bmp
185.153082848	1.8828339570000023	shape	0.657752990723	1.0	0.8	n/a	n/a	187.035916805	187.052001953	188.031735897	n/a	oval-horizontal.bmp	oval-horizontal.bmp	oval-vertical.bmp
188.149443865	1.885462044999997	shape	0.604120969772	1.0	0.8	n/a	n/a	190.03490591	190.051020861	191.034595966	n/a	oval-horizontal.bmp	oval-horizontal.bmp	circle.bmp
191.168100834	1.8653430939999964	shape	0.969843864441	1.0	0.8	n/a	n/a	193.033443928	193.050767899	194.033756018	n/a	circle.bmp	circle.bmp	oval-vertical.bmp
194.150753021	1.882324933999996	shape	0.666549921036	1.0	0.8	n/a	n/a	196.033077955	196.048841953	197.03152895	n/a	oval-horizontal.bmp	circle.bmp	circle.bmp
200.098296881	1.9327991010000003	face	0.727596998215	1.0	0.8	197.121250868	200.031147957	202.031095982	202.046950817	203.030691862	n/a	FFX_54.jpg	FFX_54.jpg	FAX_51.jpg
203.181079865	1.848609924000016	face	0.957698106766	1.0	0.8	n/a	n/a	205.029689789	205.046515942	206.028939009	n/a	40M_FE_O.BMP	41M_FE_O.jpg	41M_FE_O.jpg
206.192573786	1.8330461980000048	face	0.583879947662	1.0	0.8	n/a	n/a	208.025619984	208.042889833	209.026002884	n/a	29M_AN_O.jpg	29M_AN_O.jpg	28M_AN_O.jpg
209.176921844	1.851370097	face	0.888238191605	1.0	0.8	n/a	n/a	211.028291941	211.045518875	212.027747869	n/a	FFZ_18.jpg	FFZ_29.jpg	FFZ_29.jpg
212.195353985	1.832752943000003	face	0.919867992401	1.0	0.8	n/a	n/a	214.028106928	214.04499197	215.02727294	n/a	19F_AN_O.jpg	19F_AN_O.jpg	09F_AN_O.jpg
215.163175821	1.862957000999984	face	0.669198036194	1.0	0.8	n/a	n/a	217.026132822	217.043617964	218.026176929	n/a	MFZ_132.jpg	MFZ_7.jpg	MFZ_7.jpg
221.077138901	1.948311089999976	shape	0.819614887238	1.0	0.8	218.117719889	221.025153875	223.025449991	223.041687012	224.024249792	n/a	circle.bmp	oval-vertical.bmp	oval-vertical.bmp
224.142363787	1.8818070890000056	shape	0.692996025085	1.0	0.8	n/a	n/a	226.024170876	226.039976835	227.023682833	n/a	oval-horizontal.bmp	oval-horizontal.bmp	circle.bmp
227.141316891	1.8951489920000029	shape	0.53718996048	1.0	0.8	n/a	n/a	229.036465883	229.053112984	230.037270784	n/a	oval-horizontal.bmp	oval-vertical.bmp	oval-vertical.bmp
230.156769991	1.8820109369999896	shape	0.671831130981	1.0	0.8	n/a	n/a	232.038780928	232.055917978	233.038297892	n/a	oval-horizontal.bmp	circle.bmp	circle.bmp
233.173274994	1.8653519149999909	shape	0.536906957626	1.0	0.8	n/a	n/a	235.038626909	235.054427862	236.037905931	n/a	oval-horizontal.bmp	oval-horizontal.bmp	oval-vertical.bmp
236.15711689	1.880293131000002	shape	0.530967950821	1.0	0.8	n/a	n/a	238.037410021	238.053919792	239.0361588	n/a	circle.bmp	circle.bmp	oval-vertical.bmp
242.119940996	1.9150149820000024	face	1.05977392197	1.0	0.8	239.128084898	242.035904884	244.034955978	244.052096844	245.034711838	n/a	20M_FE_O.jpg	21M_FE_O.jpg	21M_FE_O.jpg
245.202073812	1.832593202999988	face	0.575813055038	1.0	0.8	n/a	n/a	247.034667015	247.051131964	248.033939838	n/a	07F_AN_O.jpg	07F_AN_O.jpg	01F_AN_O.jpg
248.180429935	1.8505239490000065	face	0.636874914169	1.0	0.8	n/a	n/a	250.030953884	250.047243834	251.030898809	n/a	FFZ_102.jpg	FFZ_102.jpg	FFX_139.jpg
251.200327873	1.832765103000014	face	0.655158042908	1.0	0.8	n/a	n/a	253.033092976	253.04913497	254.032884836	n/a	22M_AN_O.jpg	23M_AN_O.jpg	23M_AN_O.jpg
254.183928013	1.8477258679999973	face	0.700029850006	1.0	0.8	n/a	n/a	256.031653881	256.049190998	257.030786991	n/a	MAX_233.jpg	MAZ_146.jpg	MAZ_146.jpg
257.199013948	1.831790925000007	face	1.11686396599	1.0	0.8	n/a	n/a	259.030804873	259.04705286	260.030231953	n/a	15F_FE_O.jpg	15F_FE_O.jpg	16F_FE_O.jpg
263.081007957	1.9489948749999824	shape	0.694457054138	1.0	0.8	260.1238029	263.029142857	265.030002832	265.046053886	266.028990984	n/a	oval-horizontal.bmp	oval-horizontal.bmp	oval-vertical.bmp
266.156174898	1.871625899999969	shape	0.658341884613	1.0	0.8	n/a	n/a	268.027800798	268.045007944	269.028146982	n/a	oval-horizontal.bmp	oval-vertical.bmp	oval-vertical.bmp
269.157887936	1.867203950999965	shape	0.536116123199	1.0	0.8	n/a	n/a	271.025091887	271.041095018	272.024760008	n/a	circle.bmp	circle.bmp	oval-vertical.bmp
272.159282923	1.8683819770000127	shape	0.670690059662	1.0	0.8	n/a	n/a	274.0276649	274.043674946	275.0260849	n/a	circle.bmp	oval-vertical.bmp	oval-vertical.bmp
275.160761833	1.865622997000003	shape	0.618900060654	1.0	0.8	n/a	n/a	277.02638483	277.04270196	278.025580883	n/a	oval-horizontal.bmp	circle.bmp	circle.bmp
278.15998292	1.8649060719999968	shape	0.670058012009	1.0	0.8	n/a	n/a	280.024888992	280.041529894	281.024482012	n/a	oval-horizontal.bmp	oval-horizontal.bmp	circle.bmp
284.090553999	1.9331629280000016	face	0.760354042053	1.0	0.8	281.116657019	284.023784876	286.023716927	286.039789915	287.039527893	n/a	FFZ_18.jpg	FAZ_129.jpg	FAZ_129.jpg
287.218249798	1.8210940360000336	face	1.1756901741	1.0	0.8	n/a	n/a	289.039343834	289.055424929	290.037997961	n/a	20M_FE_O.jpg	24M_FE_O.jpg	24M_FE_O.jpg
290.185773849	1.8499729640000169	face	0.770640850067	1.0	0.8	n/a	n/a	292.035746813	292.052908897	293.035318851	n/a	FAZ_23.jpg	FAX_25.jpg	FAX_25.jpg
293.204075813	1.834393024999997	face	0.705360174179	1.0	0.8	n/a	n/a	295.038468838	295.054325819	296.037147999	n/a	33M_FE_O.jpg	33M_FE_O.jpg	35M_FE_O.jpg
296.221530914	1.8158240319999663	face	0.601370811462	1.0	0.8	n/a	n/a	298.037354946	298.052462816	299.036232948	n/a	01F_AN_O.jpg	01F_AN_O.jpg	02F_AN_O.jpg
299.187716007	1.8482918739999832	face	0.819417953491	1.0	0.8	n/a	n/a	301.036007881	301.052286863	302.034431934	n/a	MFZ_132.jpg	MFZ_132.jpg	MFZ_120.jpg
305.076424837	1.957626103999985	shape	0.9436378479	1.0	0.8	302.129283905	305.034304857	307.034050941	307.050297976	308.033293962	n/a	oval-horizontal.bmp	oval-vertical.bmp	oval-vertical.bmp
308.161317825	1.8713731769999529	shape	0.459670066833	1.0	0.8	n/a	n/a	310.032691002	310.049865007	311.032438993	n/a	circle.bmp	oval-vertical.bmp	oval-vertical.bmp
311.163249969	1.8664219380000304	shape	0.587105989456	1.0	0.8	n/a	n/a	313.029671907	313.046494007	314.031121016	n/a	oval-horizontal.bmp	oval-horizontal.bmp	oval-vertical.bmp
314.163672924	1.868234872999949	shape	0.554380178452	1.0	0.8	n/a	n/a	316.031907797	316.048288822	317.030579805	n/a	oval-horizontal.bmp	oval-horizontal.bmp	circle.bmp
317.165768862	1.8653030390000247	shape	0.651978969574	1.0	0.8	n/a	n/a	319.031071901	319.04695487	320.030608892	n/a	circle.bmp	circle.bmp	oval-vertical.bmp
320.163722992	1.8657708169999976	shape	0.71884393692	1.0	0.8	n/a	n/a	322.029493809	322.046513796	323.028951883	n/a	oval-horizontal.bmp	circle.bmp	circle.bmp
326.120270014	1.9073288439999487	face	1.17735815048	1.0	0.8	323.126061916	326.028518915	328.027598858	328.043992996	329.026885986	n/a	17F_FE_O.jpg	18F_FE_O.jpg	18F_FE_O.jpg
329.206084967	1.820828914000004	face	0.674870014191	1.0	0.8	n/a	n/a	331.026913881	331.043837786	332.02655983	n/a	42M_AN_O.jpg	43M_AN_O.jpg	43M_AN_O.jpg
332.193998814	1.846343040000022	face	0.869667053223	1.0	0.8	n/a	n/a	334.040341854	334.057671785	335.025827885	n/a	31M_FE_O.jpg	31M_FE_O.jpg	32M_FE_O.jpg
335.175109863	1.8509449960000093	face	0.720685005188	1.0	0.8	n/a	n/a	337.026054859	337.042387009	338.024731874	n/a	FAZ_212.jpg	FFZ_236.jpg	FFZ_236.jpg
338.209365845	1.8148930070000235	face	0.702001094818	1.0	0.8	n/a	n/a	340.024258852	340.041668892	341.023866892	n/a	06F_FE_O.jpg	06F_FE_O.jpg	08F_FE_O.jpg
341.174248934	1.8654458519999928	face	0.719897031784	1.0	0.8	n/a	n/a	343.039694786	343.056677818	344.039582968	n/a	MAZ_128.jpg	MAZ_128.jpg	MAX_39.jpg
347.089200974	1.9496428960000003	shape	0.661913871765	1.0	0.8	344.137816906	347.037895918	349.03884387	349.055142879	350.03726697	n/a	circle.bmp	oval-vertical.bmp	oval-vertical.bmp
350.1662848	1.8716051569999763	shape	0.608918905258	1.0	0.8	n/a	n/a	352.037889957	352.053785801	353.033374786	n/a	oval-horizontal.bmp	oval-horizontal.bmp	circle.bmp
353.167074919	1.8673849099999984	shape	0.584245204926	1.0	0.8	n/a	n/a	355.034459829	355.051285982	356.03656888	n/a	oval-horizontal.bmp	oval-vertical.bmp	oval-vertical.bmp
356.169677973	1.8666088580000064	shape	1.1044960022	1.0	0.8	n/a	n/a	358.036286831	358.052270889	359.035856009	n/a	oval-horizontal.bmp	circle.bmp	circle.bmp
359.170230865	1.865087985999992	shape	0.534826993942	1.0	0.8	n/a	n/a	361.035318851	361.051811934	362.03441596	n/a	oval-horizontal.bmp	oval-horizontal.bmp	oval-vertical.bmp
362.168897867	1.8653600220000044	shape	0.569034814835	1.0	0.8	n/a	n/a	364.034257889	364.050909996	365.033037901	n/a	circle.bmp	circle.bmp	oval-vertical.bmp
368.100619793	1.932129144999976	face	0.676697015762	1.0	0.8	365.133512974	368.032799006	370.032748938	370.0486238	371.031599998	n/a	FFZ_18.jpg	FAZ_129.jpg	FAZ_129.jpg
371.210007906	1.8215510840000209	face	1.29092693329	1.0	0.8	n/a	n/a	373.03155899	373.048244953	374.030838966	n/a	20M_FE_O.jpg	24M_FE_O.jpg	24M_FE_O.jpg
374.178356886	1.8500089639999828	face	0.719612836838	1.0	0.8	n/a	n/a	376.02836585	376.045724869	377.030556917	n/a	FAZ_23.jpg	FAX_25.jpg	FAX_25.jpg
377.214034796	1.81546902599996	face	0.787958145142	1.0	0.8	n/a	n/a	379.029503822	379.046720982	380.029518843	n/a	33M_FE_O.jpg	33M_FE_O.jpg	35M_FE_O.jpg
380.214643002	1.8148248190000231	face	0.633663892746	1.0	0.8	n/a	n/a	382.029467821	382.045791864	383.027957916	n/a	01F_AN_O.jpg	01F_AN_O.jpg	02F_AN_O.jpg
383.179917812	1.8481931690000124	face	0.719521045685	1.0	0.8	n/a	n/a	385.028110981	385.044515848	386.027145863	394.424353838	MFZ_132.jpg	MFZ_132.jpg	MFZ_120.jpg
