onset	duration	trial_type	response_time	accuracy_binarized	tr_seconds	cueStartTime	cueEndTime	trialEndTime	fixStartTime	fixEndTime	runEndTime	stimLeft	stimTop	stimRight
11.0585949421	1.9558031559	shape	1.42978811264	0.0	0.8	8.02394890785	11.0135900974	13.014398098	13.0189290047	14.0130670071	n/a	oval-horizontal.bmp	oval-horizontal.bmp	oval-vertical.bmp
14.1272490025	1.9014160632999992	shape	n/a	0.0	0.8	n/a	n/a	16.0286650658	16.0323619843	17.0295250416	n/a	oval-horizontal.bmp	oval-vertical.bmp	oval-vertical.bmp
17.1278729439	1.901137113499999	shape	n/a	0.0	0.8	n/a	n/a	19.0290100574	19.0327858925	20.0282309055	n/a	circle.bmp	circle.bmp	oval-vertical.bmp
20.1279881001	1.9007859229999973	shape	n/a	0.0	0.8	n/a	n/a	22.0287740231	22.032640934	23.0280749798	n/a	circle.bmp	oval-vertical.bmp	oval-vertical.bmp
23.125729084	1.9025127887999995	shape	n/a	0.0	0.8	n/a	n/a	25.0282418728	25.0319259167	26.0282330513	n/a	oval-horizontal.bmp	circle.bmp	circle.bmp
26.1245949268	1.9014980793000007	shape	n/a	0.0	0.8	n/a	n/a	28.0260930061	28.0292489529	29.0272009373	n/a	oval-horizontal.bmp	oval-horizontal.bmp	circle.bmp
32.0825259686	1.9449789524	face	1.02022981644	0.0	0.8	29.0975499153	32.0262610912	34.027504921	34.0323438644	35.0267028809	n/a	FAZ_23.jpg	FAZ_23.jpg	FAX_43.jpg
35.1562769413	1.8707160949999988	face	0.911238908768	0.0	0.8	n/a	n/a	37.0269930363	37.0305268764	38.0262169838	n/a	26M_FE_O.jpg	26M_FE_O.jpg	27M_FE_O.BMP
38.1420900822	1.884649992	face	0.661051034927	0.0	0.8	n/a	n/a	40.0267400742	40.0306169987	41.0256850719	n/a	MFX_16.jpg	MFZ_50.jpg	MFZ_50.jpg
41.1649999619	1.8616800307999952	face	1.11679887772	0.0	0.8	n/a	n/a	43.0266799927	43.0302269459	44.025167942	n/a	09F_AN_O.jpg	09F_AN_O.jpg	10F_AN_O.jpg
44.1512930393	1.8746838570000008	face	0.577430009842	0.0	0.8	n/a	n/a	46.0259768963	46.0294849873	47.0253620148	n/a	38M_AN_O.BMP	39M_AN_O.jpg	39M_AN_O.jpg
47.1360030174	1.8891599179000025	face	1.07717108727	0.0	0.8	n/a	n/a	49.0251629353	49.028783083	50.0241649151	n/a	FFZ_102.jpg	FFX_130.jpg	FFX_130.jpg
53.0627560616	1.9620079994000008	shape	0.736052036285	1.0	0.8	50.0931749344	53.0243060589	55.024764061	55.0291888714	56.023868084	n/a	oval-horizontal.bmp	oval-vertical.bmp	oval-vertical.bmp
56.1161160469	1.908233881000001	shape	0.734300851822	0.0	0.8	n/a	n/a	58.0243499279	58.0278830528	59.0238099098	n/a	circle.bmp	oval-vertical.bmp	oval-vertical.bmp
59.1170139313	1.9067859649000027	shape	1.00854086876	0.0	0.8	n/a	n/a	61.0237998962	61.0273480415	62.0227029324	n/a	oval-horizontal.bmp	oval-horizontal.bmp	oval-vertical.bmp
62.1165790558	1.9059660435000008	shape	0.809201955795	0.0	0.8	n/a	n/a	64.0225450993	64.0265479088	65.0229289532	n/a	oval-horizontal.bmp	oval-horizontal.bmp	circle.bmp
65.1193900108	1.9039869308999893	shape	1.08925080299	0.0	0.8	n/a	n/a	67.0233769417	67.02688694	68.0221779346	n/a	circle.bmp	circle.bmp	oval-vertical.bmp
68.1177699566	1.9048290253000035	shape	n/a	0.0	0.8	n/a	n/a	70.0225989819	70.0261368752	71.0222110748	n/a	oval-horizontal.bmp	circle.bmp	circle.bmp
74.1029679775	1.9183681011000004	face	n/a	0.0	0.8	71.0929529667	74.0222070217	76.0213360786	76.0259070396	77.0219008923	n/a	03F_FE_O.jpg	05F_FE_O.jpg	05F_FE_O.jpg
77.135201931	1.886644125000004	face	n/a	0.0	0.8	n/a	n/a	79.021846056	79.0256550312	80.0209450722	n/a	FAZ_32.jpg	FAZ_32.jpg	FAX_45.jpg
80.133161068	1.8884029387999988	face	n/a	0.0	0.8	n/a	n/a	82.0215640068	82.0251019001	83.0209438801	n/a	MAZ_128.jpg	MAZ_101.jpg	MAZ_101.jpg
83.1601610184	1.8609809875	face	n/a	0.0	0.8	n/a	n/a	85.0211420059	85.024627924	86.0204479694	n/a	11F_AN_O.jpg	11F_AN_O.jpg	12F_AN_O.jpg
86.1598610878	1.8605928421000044	face	n/a	0.0	0.8	n/a	n/a	88.0204539299	88.0239360332	89.0200059414	n/a	26M_FE_O.jpg	33M_FE_O.jpg	33M_FE_O.jpg
89.1400709152	1.880784988399995	face	n/a	0.0	0.8	n/a	n/a	91.0208559036	91.0244820118	92.0197439194	n/a	MFZ_132.jpg	MFZ_132.jpg	MFZ_120.jpg
95.0560910702	1.9641599655000024	shape	1.78952288628	0.0	0.8	92.0916669369	95.019505024	97.0202510357	97.0246219635	98.0194349289	n/a	circle.bmp	oval-vertical.bmp	oval-vertical.bmp
98.1128509045	1.9070940015000133	shape	1.23838114738	0.0	0.8	n/a	n/a	100.019944906	100.023848057	101.018908024	n/a	oval-horizontal.bmp	oval-horizontal.bmp	circle.bmp
101.117726088	1.9014518259999988	shape	1.7215590477	0.0	0.8	n/a	n/a	103.019177914	103.022742033	104.018629074	n/a	oval-horizontal.bmp	oval-vertical.bmp	oval-vertical.bmp
104.115846872	1.90303111099999	shape	0.854252815247	0.0	0.8	n/a	n/a	106.018877983	106.022378922	107.018048048	n/a	oval-horizontal.bmp	circle.bmp	circle.bmp
107.115643024	1.902580023000013	shape	0.888837099075	0.0	0.8	n/a	n/a	109.018223047	109.021709919	110.018096924	n/a	oval-horizontal.bmp	oval-horizontal.bmp	oval-vertical.bmp
110.11294508	1.9048919680000007	shape	1.32154417038	0.0	0.8	n/a	n/a	112.017837048	112.021619081	113.018244982	n/a	circle.bmp	circle.bmp	oval-vertical.bmp
116.087960005	1.929822922	face	0.837448120117	0.0	0.8	113.09040904	116.033917904	118.017782927	118.022264957	119.017215967	n/a	FAZ_23.jpg	FAZ_23.jpg	FAX_43.jpg
119.142879009	1.8749570850000048	face	0.817573785782	0.0	0.8	n/a	n/a	121.017836094	121.021349907	122.016952991	n/a	26M_FE_O.jpg	26M_FE_O.jpg	27M_FE_O.BMP
122.134859085	1.898630858000004	face	0.936488866806	0.0	0.8	n/a	n/a	124.033489943	124.03697896	125.032315016	n/a	MFZ_50.jpg	MFZ_50.jpg	MFX_16.jpg
125.176161051	1.8568079470000072	face	n/a	0.0	0.8	n/a	n/a	127.032968998	127.036491871	128.032300949	n/a	10F_AN_O.jpg	09F_AN_O.jpg	09F_AN_O.jpg
128.158164024	1.875040055	face	0.919448137283	0.0	0.8	n/a	n/a	130.033204079	130.03676796	131.032218933	n/a	38M_AN_O.BMP	39M_AN_O.jpg	39M_AN_O.jpg
131.148797989	1.8840780259999967	face	0.782054185867	0.0	0.8	n/a	n/a	133.032876015	133.036379099	134.031970978	n/a	FFZ_102.jpg	FFX_130.jpg	FFX_130.jpg
137.067915916	1.9642341139999928	shape	n/a	0.0	0.8	134.106389999	137.032063007	139.03215003	139.036346912	140.031205893	n/a	oval-horizontal.bmp	oval-horizontal.bmp	oval-vertical.bmp
140.130570889	1.9011661999999767	shape	n/a	0.0	0.8	n/a	n/a	142.031737089	142.035333872	143.031188011	n/a	oval-horizontal.bmp	oval-vertical.bmp	oval-vertical.bmp
143.128225088	1.9027729040000168	shape	n/a	0.0	0.8	n/a	n/a	145.030997992	145.034533024	146.030588865	n/a	circle.bmp	circle.bmp	oval-vertical.bmp
146.129230022	1.9012269979999985	shape	n/a	0.0	0.8	n/a	n/a	148.03045702	148.033989906	149.030585051	n/a	circle.bmp	oval-vertical.bmp	oval-vertical.bmp
149.128728867	1.901979208	shape	0.885919094086	0.0	0.8	n/a	n/a	151.030708075	151.034187078	152.029692888	n/a	oval-horizontal.bmp	circle.bmp	circle.bmp
152.128880024	1.901705980000003	shape	0.887196063995	0.0	0.8	n/a	n/a	154.030586004	154.034084082	155.029857874	n/a	oval-horizontal.bmp	oval-horizontal.bmp	circle.bmp
158.104840994	1.924772023999992	face	n/a	0.0	0.8	155.106528044	158.029872894	160.029613018	160.034518003	161.029150009	n/a	20M_FE_O.jpg	21M_FE_O.jpg	21M_FE_O.jpg
161.170897961	1.858825921999994	face	0.98246383667	0.0	0.8	n/a	n/a	163.029723883	163.033287048	164.029299974	n/a	01F_AN_O.jpg	07F_AN_O.jpg	07F_AN_O.jpg
164.148303986	1.8807029719999944	face	1.20284986496	0.0	0.8	n/a	n/a	166.029006958	166.032518864	167.028112888	n/a	FFX_139.jpg	FFZ_102.jpg	FFZ_102.jpg
167.166989088	1.8620128629999897	face	1.01937198639	0.0	0.8	n/a	n/a	169.029001951	169.032466888	170.028223038	n/a	23M_AN_O.jpg	23M_AN_O.jpg	22M_AN_O.jpg
170.144680977	1.8832290169999908	face	1.08666491508	0.0	0.8	n/a	n/a	172.027909994	172.031792879	173.027536869	n/a	MAZ_146.jpg	MAZ_146.jpg	MAX_233.jpg
173.166610956	1.8613541130000044	face	1.46621108055	1.0	0.8	n/a	n/a	175.027965069	175.0314641	176.027211905	n/a	15F_FE_O.jpg	15F_FE_O.jpg	16F_FE_O.jpg
179.063539028	1.9641430380000031	shape	1.00067782402	0.0	0.8	176.10510087	179.027530909	181.027682066	181.032100916	182.026361942	n/a	oval-horizontal.bmp	oval-vertical.bmp	oval-vertical.bmp
182.128266096	1.8983769419999987	shape	0.870527029037	0.0	0.8	n/a	n/a	184.026643038	184.030613899	185.026401997	n/a	circle.bmp	oval-vertical.bmp	oval-vertical.bmp
185.129379988	1.8962750430000028	shape	n/a	0.0	0.8	n/a	n/a	187.025655031	187.029368877	188.02579999	n/a	oval-horizontal.bmp	oval-horizontal.bmp	oval-vertical.bmp
188.129093885	1.896784067999988	shape	n/a	0.0	0.8	n/a	n/a	190.025877953	190.029525042	191.025356054	n/a	oval-horizontal.bmp	oval-horizontal.bmp	circle.bmp
191.12449193	1.901035070000006	shape	n/a	0.0	0.8	n/a	n/a	193.025527	193.029360056	194.025806904	n/a	circle.bmp	circle.bmp	oval-vertical.bmp
194.125770092	1.8991467949999787	shape	n/a	0.0	0.8	n/a	n/a	196.024916887	196.028454065	197.024753094	n/a	oval-horizontal.bmp	circle.bmp	circle.bmp
200.083023071	1.9419479369999808	face	n/a	0.0	0.8	197.102351904	200.024023056	202.024971008	202.02947402	203.024883986	n/a	FFX_54.jpg	FFX_54.jpg	FAX_51.jpg
203.160077095	1.8646078110000133	face	n/a	0.0	0.8	n/a	n/a	205.024684906	205.028672934	206.023746014	n/a	40M_FE_O.BMP	41M_FE_O.jpg	41M_FE_O.jpg
206.161031961	1.863430977000008	face	n/a	0.0	0.8	n/a	n/a	208.024462938	208.028017998	209.02340889	n/a	29M_AN_O.jpg	29M_AN_O.jpg	28M_AN_O.jpg
209.143331051	1.880599975000024	face	n/a	0.0	0.8	n/a	n/a	211.023931026	211.027486086	212.02305007	n/a	FFZ_18.jpg	FFZ_29.jpg	FFZ_29.jpg
212.165279865	1.858491182999984	face	n/a	0.0	0.8	n/a	n/a	214.023771048	214.027322054	215.022686005	n/a	19F_AN_O.jpg	19F_AN_O.jpg	09F_AN_O.jpg
215.141881943	1.8813729280000189	face	n/a	0.0	0.8	n/a	n/a	217.023254871	217.026804924	218.022511005	n/a	MFZ_132.jpg	MFZ_7.jpg	MFZ_7.jpg
221.060052872	1.9622402189999943	shape	n/a	0.0	0.8	218.101921082	221.022150993	223.022293091	223.026751995	224.021822929	n/a	circle.bmp	oval-vertical.bmp	oval-vertical.bmp
224.122089863	1.8998911379999868	shape	n/a	0.0	0.8	n/a	n/a	226.021981001	226.025543928	227.0213871	n/a	oval-horizontal.bmp	oval-horizontal.bmp	circle.bmp
227.122957945	1.8992309570000143	shape	n/a	0.0	0.8	n/a	n/a	229.022188902	229.025748968	230.020987988	n/a	oval-horizontal.bmp	oval-vertical.bmp	oval-vertical.bmp
230.123609066	1.8970658780000065	shape	n/a	0.0	0.8	n/a	n/a	232.020674944	232.024196863	233.021285057	n/a	oval-horizontal.bmp	circle.bmp	circle.bmp
233.123907089	1.8970007899999928	shape	n/a	0.0	0.8	n/a	n/a	235.020907879	235.024503946	236.020539999	n/a	oval-horizontal.bmp	oval-horizontal.bmp	oval-vertical.bmp
236.127374887	1.893254995999996	shape	n/a	0.0	0.8	n/a	n/a	238.020629883	238.024122	239.020624876	n/a	circle.bmp	circle.bmp	oval-vertical.bmp
242.098834038	1.9211549759999969	face	n/a	0.0	0.8	239.101243973	242.019795895	244.019989014	244.024784088	245.019200087	n/a	20M_FE_O.jpg	21M_FE_O.jpg	21M_FE_O.jpg
245.162527084	1.8583087920000023	face	n/a	0.0	0.8	n/a	n/a	247.020835876	247.024471045	248.018936872	n/a	07F_AN_O.jpg	07F_AN_O.jpg	01F_AN_O.jpg
248.141401052	1.8781709680000065	face	n/a	0.0	0.8	n/a	n/a	250.01957202	250.023077011	251.018747091	n/a	FFZ_102.jpg	FFZ_102.jpg	FFX_139.jpg
251.165176868	1.8542900090000105	face	n/a	0.0	0.8	n/a	n/a	253.019466877	253.023047924	254.01831007	n/a	22M_AN_O.jpg	23M_AN_O.jpg	23M_AN_O.jpg
254.140094042	1.879148960000009	face	n/a	0.0	0.8	n/a	n/a	256.019243002	256.023088932	257.017981052	n/a	MAX_233.jpg	MAZ_146.jpg	MAZ_146.jpg
257.164727926	1.8536281589999817	face	n/a	0.0	0.8	n/a	n/a	259.018356085	259.022018909	260.017256021	n/a	15F_FE_O.jpg	15F_FE_O.jpg	16F_FE_O.jpg
263.054471016	1.9631628989999967	shape	n/a	0.0	0.8	260.097070932	263.017431021	265.017633915	265.022217989	266.016999006	n/a	oval-horizontal.bmp	oval-horizontal.bmp	oval-vertical.bmp
266.117989063	1.899210930000038	shape	n/a	0.0	0.8	n/a	n/a	268.017199993	268.020969868	269.017142057	n/a	oval-horizontal.bmp	oval-vertical.bmp	oval-vertical.bmp
269.120748997	1.913069962999998	shape	n/a	0.0	0.8	n/a	n/a	271.03381896	271.037364006	272.017237902	n/a	circle.bmp	circle.bmp	oval-vertical.bmp
272.119124889	1.9143171310000184	shape	n/a	0.0	0.8	n/a	n/a	274.03344202	274.03695488	275.032999039	n/a	circle.bmp	oval-vertical.bmp	oval-vertical.bmp
275.136271	1.896677970999974	shape	n/a	0.0	0.8	n/a	n/a	277.032948971	277.036454916	278.032882929	n/a	oval-horizontal.bmp	circle.bmp	circle.bmp
278.133136988	1.8992838860000347	shape	n/a	0.0	0.8	n/a	n/a	280.032420874	280.036205053	281.032068968	n/a	oval-horizontal.bmp	oval-horizontal.bmp	circle.bmp
284.094244957	1.9383311270000263	face	n/a	0.0	0.8	281.112556934	284.032315969	286.032576084	286.037020922	287.031706095	n/a	FFZ_18.jpg	FAZ_129.jpg	FAZ_129.jpg
287.181096077	1.85146880100001	face	n/a	0.0	0.8	n/a	n/a	289.032564878	289.036088943	290.031094074	n/a	20M_FE_O.jpg	24M_FE_O.jpg	24M_FE_O.jpg
290.153546095	1.878386973999966	face	n/a	0.0	0.8	n/a	n/a	292.031933069	292.035774946	293.031269073	n/a	FAZ_23.jpg	FAX_25.jpg	FAX_25.jpg
293.176399946	1.854273080999974	face	n/a	0.0	0.8	n/a	n/a	295.030673027	295.034470081	296.030050993	n/a	33M_FE_O.jpg	33M_FE_O.jpg	35M_FE_O.jpg
296.174890041	1.855821847999948	face	n/a	0.0	0.8	n/a	n/a	298.030711889	298.034233093	299.030040026	n/a	01F_AN_O.jpg	01F_AN_O.jpg	02F_AN_O.jpg
299.154434919	1.8761210449999908	face	n/a	0.0	0.8	n/a	n/a	301.030555964	301.033967018	302.029983044	n/a	MFZ_132.jpg	MFZ_132.jpg	MFZ_120.jpg
305.065625906	1.9641261099999952	shape	n/a	0.0	0.8	302.110142946	305.029367924	307.029752016	307.03422904	308.029684067	n/a	oval-horizontal.bmp	oval-vertical.bmp	oval-vertical.bmp
308.132648945	1.896548985999971	shape	n/a	0.0	0.8	n/a	n/a	310.029197931	310.032819986	311.029000998	n/a	circle.bmp	oval-vertical.bmp	oval-vertical.bmp
311.13101387	1.898022174999994	shape	n/a	0.0	0.8	n/a	n/a	313.029036045	313.032557964	314.02895689	n/a	oval-horizontal.bmp	oval-horizontal.bmp	oval-vertical.bmp
314.132942915	1.8953731060000223	shape	n/a	0.0	0.8	n/a	n/a	316.028316021	316.032216072	317.028106928	n/a	oval-horizontal.bmp	oval-horizontal.bmp	circle.bmp
317.131845951	1.8962550159999976	shape	n/a	0.0	0.8	n/a	n/a	319.028100967	319.031647921	320.027756929	n/a	circle.bmp	circle.bmp	oval-vertical.bmp
320.131237984	1.896492003999981	shape	n/a	0.0	0.8	n/a	n/a	322.027729988	322.031548023	323.027770042	n/a	oval-horizontal.bmp	circle.bmp	circle.bmp
326.103453875	1.9240961069999685	face	n/a	0.0	0.8	323.109082937	326.0270679	328.027549982	328.032347918	329.02670908	n/a	17F_FE_O.jpg	18F_FE_O.jpg	18F_FE_O.jpg
329.169169903	1.8581690789999925	face	n/a	0.0	0.8	n/a	n/a	331.027338982	331.030871868	332.026438951	n/a	42M_AN_O.jpg	43M_AN_O.jpg	43M_AN_O.jpg
332.174813986	1.853018044999999	face	n/a	0.0	0.8	n/a	n/a	334.027832031	334.031657934	335.026002884	n/a	31M_FE_O.jpg	31M_FE_O.jpg	32M_FE_O.jpg
335.156033039	1.8708930020000023	face	n/a	0.0	0.8	n/a	n/a	337.026926041	337.03052187	338.026820898	n/a	FAZ_212.jpg	FFZ_236.jpg	FFZ_236.jpg
338.181356907	1.845571040999971	face	1.71971607208	0.0	0.8	n/a	n/a	340.026927948	340.030864954	341.025960922	n/a	06F_FE_O.jpg	06F_FE_O.jpg	08F_FE_O.jpg
341.157586098	1.8689208029999804	face	1.13569402695	0.0	0.8	n/a	n/a	343.026506901	343.030103922	344.026057005	n/a	MAZ_128.jpg	MAZ_128.jpg	MAX_39.jpg
347.063885927	1.961740970999984	shape	0.752436161041	0.0	0.8	344.114291906	347.025343895	349.025626898	349.03013587	350.025008917	n/a	circle.bmp	oval-vertical.bmp	oval-vertical.bmp
350.13478303	1.8902339929999807	shape	0.830786943436	0.0	0.8	n/a	n/a	352.025017023	352.028707981	353.02452302	n/a	oval-horizontal.bmp	oval-horizontal.bmp	circle.bmp
353.134512901	1.890527010000028	shape	0.864924907684	0.0	0.8	n/a	n/a	355.025039911	355.028805017	356.023727894	n/a	oval-horizontal.bmp	oval-vertical.bmp	oval-vertical.bmp
356.134542942	1.8903670309999825	shape	0.913074016571	0.0	0.8	n/a	n/a	358.024909973	358.028591871	359.024173021	n/a	oval-horizontal.bmp	circle.bmp	circle.bmp
359.140763044	1.883260966000023	shape	n/a	0.0	0.8	n/a	n/a	361.02402401	361.027945995	362.023357868	n/a	oval-horizontal.bmp	oval-horizontal.bmp	oval-vertical.bmp
362.135921955	1.8889300820000017	shape	n/a	0.0	0.8	n/a	n/a	364.024852037	364.029150009	365.023226976	n/a	circle.bmp	circle.bmp	oval-vertical.bmp
368.078160048	1.94532704300002	face	n/a	0.0	0.8	365.113188982	368.022445917	370.023487091	370.028061867	371.022746086	n/a	FFZ_18.jpg	FAZ_129.jpg	FAZ_129.jpg
371.178061962	1.845221042999981	face	n/a	0.0	0.8	n/a	n/a	373.023283005	373.02678299	374.022773981	n/a	20M_FE_O.jpg	24M_FE_O.jpg	24M_FE_O.jpg
374.154608965	1.8676381109999625	face	n/a	0.0	0.8	n/a	n/a	376.022247076	376.026584864	377.022012949	n/a	FAZ_23.jpg	FAX_25.jpg	FAX_25.jpg
377.178080082	1.8449628349999896	face	n/a	0.0	0.8	n/a	n/a	379.023042917	379.026737928	380.021460056	n/a	33M_FE_O.jpg	33M_FE_O.jpg	35M_FE_O.jpg
380.183950901	1.8380861279999865	face	n/a	0.0	0.8	n/a	n/a	382.022037029	382.025652885	383.021399021	n/a	01F_AN_O.jpg	01F_AN_O.jpg	02F_AN_O.jpg
383.152040958	1.8688640600000213	face	n/a	0.0	0.8	n/a	n/a	385.020905018	385.024514914	386.021419048	394.420572996	MFZ_132.jpg	MFZ_132.jpg	MFZ_120.jpg
