onset	duration	trial_type	response_time	accuracy_binarized	tr_seconds	cueStartTime	cueEndTime	trialEndTime	fixStartTime	fixEndTime	runEndTime	stimLeft	stimTop	stimRight
11.0580890179	1.9680788517	shape	1.3527431488	0.0	0.8	8.02150702477	11.0093638897	13.0261678696	13.0330350399	14.0257539749	n/a	oval-horizontal.bmp	oval-horizontal.bmp	oval-vertical.bmp
14.1436479092	1.880988121	shape	1.08655595779	0.0	0.8	n/a	n/a	16.0246360302	16.02825284	17.0246398449	n/a	oval-horizontal.bmp	oval-vertical.bmp	oval-vertical.bmp
17.1242170334	1.9015538692000007	shape	1.00344395638	1.0	0.8	n/a	n/a	19.0257709026	19.0293989182	20.0249819756	n/a	circle.bmp	circle.bmp	oval-vertical.bmp
20.1263518333	1.8988389969000004	shape	0.970430850983	1.0	0.8	n/a	n/a	22.0251908302	22.0287349224	23.0247600079	n/a	circle.bmp	oval-vertical.bmp	oval-vertical.bmp
23.1249940395	1.899680852900001	shape	0.836212873459	1.0	0.8	n/a	n/a	25.0246748924	25.0282759666	26.023804903	n/a	oval-horizontal.bmp	circle.bmp	circle.bmp
26.1236839294	1.8996551037000025	shape	0.786005973816	1.0	0.8	n/a	n/a	28.0233390331	28.0270009041	29.0238029957	n/a	oval-horizontal.bmp	oval-horizontal.bmp	circle.bmp
32.0872080326	1.937344789499996	face	0.835823059082	1.0	0.8	29.0999939442	32.0228559971	34.0245528221	34.0290110111	35.022936821	n/a	FAZ_23.jpg	FAZ_23.jpg	FAX_43.jpg
35.1650469303	1.858482122399998	face	1.09830594063	1.0	0.8	n/a	n/a	37.0235290527	37.0271158218	38.0225360394	n/a	26M_FE_O.jpg	26M_FE_O.jpg	27M_FE_O.BMP
38.1461138725	1.8765549660000005	face	0.88792681694	1.0	0.8	n/a	n/a	40.0226688385	40.0265729427	41.0227370262	n/a	MFX_16.jpg	MFZ_50.jpg	MFZ_50.jpg
41.1756958961	1.8473670483000009	face	1.51901316643	1.0	0.8	n/a	n/a	43.0230629444	43.0267000198	44.0221319199	n/a	09F_AN_O.jpg	09F_AN_O.jpg	10F_AN_O.jpg
44.1594529152	1.863184928899997	face	0.918868780136	1.0	0.8	n/a	n/a	46.0226378441	46.0262060165	47.0220718384	n/a	38M_AN_O.BMP	39M_AN_O.jpg	39M_AN_O.jpg
47.1453888416	1.8765180110999964	face	1.18711686134	1.0	0.8	n/a	n/a	49.0219068527	49.0255169868	50.0212938786	n/a	FFZ_102.jpg	FFX_130.jpg	FFX_130.jpg
53.0598578453	1.9614090919999967	shape	0.852753162384	1.0	0.8	50.0998549461	53.0210239887	55.0212669373	55.0263469219	56.0204179287	n/a	oval-horizontal.bmp	oval-vertical.bmp	oval-vertical.bmp
56.122535944	1.898241996800003	shape	0.869410037994	1.0	0.8	n/a	n/a	58.0207779408	58.0246949196	59.0206780434	n/a	circle.bmp	oval-vertical.bmp	oval-vertical.bmp
59.1228499413	1.897603988600004	shape	1.13723301888	1.0	0.8	n/a	n/a	61.0204539299	61.0239858627	62.0203208923	n/a	oval-horizontal.bmp	oval-horizontal.bmp	oval-vertical.bmp
62.1232719421	1.8973579406999967	shape	1.1038210392	1.0	0.8	n/a	n/a	64.0206298828	64.0246539116	65.0194580555	n/a	oval-horizontal.bmp	oval-horizontal.bmp	circle.bmp
65.1221978664	1.8976140023000028	shape	0.870884895325	1.0	0.8	n/a	n/a	67.0198118687	67.0234808922	68.0192630291	n/a	circle.bmp	circle.bmp	oval-vertical.bmp
68.1210370064	1.8983240127000016	shape	0.751821041107	1.0	0.8	n/a	n/a	70.0193610191	70.0229389668	71.0193889141	n/a	oval-horizontal.bmp	circle.bmp	circle.bmp
74.1101460457	1.909189939499996	face	1.17076802254	1.0	0.8	71.0981829166	74.019400835	76.0193359852	76.0244238377	77.0182700157	n/a	03F_FE_O.jpg	05F_FE_O.jpg	05F_FE_O.jpg
77.1412398815	1.8782930373999989	face	0.750090122223	1.0	0.8	n/a	n/a	79.0195329189	79.0231459141	80.017884016	n/a	FAZ_32.jpg	FAZ_32.jpg	FAX_45.jpg
80.1448819637	1.8736450672000016	face	1.09355401993	1.0	0.8	n/a	n/a	82.0185270309	82.0221078396	83.0183639526	n/a	MAZ_128.jpg	MAZ_101.jpg	MAZ_101.jpg
83.1665878296	1.851648092299996	face	0.911321878433	1.0	0.8	n/a	n/a	85.0182359219	85.0218448639	86.0167798996	n/a	11F_AN_O.jpg	11F_AN_O.jpg	12F_AN_O.jpg
86.1615669727	1.8557729720999987	face	0.669983863831	1.0	0.8	n/a	n/a	88.0173399448	88.0210528374	89.0171499252	n/a	26M_FE_O.jpg	33M_FE_O.jpg	33M_FE_O.jpg
89.143725872	1.8736600876000007	face	0.941251993179	1.0	0.8	n/a	n/a	91.0173859596	91.0210208893	92.0158889294	n/a	MFZ_132.jpg	MFZ_132.jpg	MFZ_120.jpg
95.0556180477	1.9615118504000009	shape	1.00367093086	1.0	0.8	92.0965418816	95.0165438652	97.0171298981	97.0217969418	98.0159239769	n/a	circle.bmp	oval-vertical.bmp	oval-vertical.bmp
98.1216490269	1.893833876100004	shape	1.01945495605	1.0	0.8	n/a	n/a	100.015482903	100.019513845	101.01528883	n/a	oval-horizontal.bmp	oval-horizontal.bmp	circle.bmp
101.119734049	1.8962199690000008	shape	0.97002196312	1.0	0.8	n/a	n/a	103.015954018	103.019554853	104.015209913	n/a	oval-horizontal.bmp	oval-vertical.bmp	oval-vertical.bmp
104.120700836	1.8947081569999968	shape	0.887689828873	1.0	0.8	n/a	n/a	106.015408993	106.018995047	107.014801025	n/a	oval-horizontal.bmp	circle.bmp	circle.bmp
107.121743917	1.894186973999993	shape	1.01995801926	1.0	0.8	n/a	n/a	109.015930891	109.019548893	110.014454842	n/a	oval-horizontal.bmp	oval-horizontal.bmp	oval-vertical.bmp
110.12159586	1.8930041790000016	shape	0.935580968857	1.0	0.8	n/a	n/a	112.014600039	112.018926859	113.014042854	n/a	circle.bmp	circle.bmp	oval-vertical.bmp
116.070092916	1.9446859360000133	face	0.870200157166	1.0	0.8	113.096700907	116.013706923	118.014778852	118.019300938	119.01413703	n/a	FAZ_23.jpg	FAZ_23.jpg	FAX_43.jpg
119.152909994	1.861124039000004	face	1.01990294456	1.0	0.8	n/a	n/a	121.014034033	121.017707825	122.012992859	n/a	26M_FE_O.jpg	26M_FE_O.jpg	27M_FE_O.BMP
122.168660879	1.8444371220000024	face	0.939721107483	1.0	0.8	n/a	n/a	124.013098001	124.016782999	125.01243782	n/a	MFZ_50.jpg	MFZ_50.jpg	MFX_16.jpg
125.155525923	1.8572039600000068	face	1.07241106033	1.0	0.8	n/a	n/a	127.012729883	127.016568899	128.011636019	n/a	10F_AN_O.jpg	09F_AN_O.jpg	09F_AN_O.jpg
128.142231941	1.870122909999992	face	0.771178007126	1.0	0.8	n/a	n/a	130.012354851	130.01590395	131.01153183	n/a	38M_AN_O.BMP	39M_AN_O.jpg	39M_AN_O.jpg
131.135087967	1.877251862999998	face	1.07128190994	1.0	0.8	n/a	n/a	133.01233983	133.015823841	134.011867046	n/a	FFZ_102.jpg	FFX_130.jpg	FFX_130.jpg
137.065815926	1.9627161020000017	shape	1.00562882423	1.0	0.8	134.091188908	137.027556896	139.028532028	139.032930851	140.02715683	n/a	oval-horizontal.bmp	oval-horizontal.bmp	oval-vertical.bmp
140.127899885	1.8992979530000007	shape	1.03730916977	1.0	0.8	n/a	n/a	142.027197838	142.030706882	143.027632952	n/a	oval-horizontal.bmp	oval-vertical.bmp	oval-vertical.bmp
143.128296852	1.898672103999985	shape	0.755073070526	1.0	0.8	n/a	n/a	145.026968956	145.030467987	146.026618004	n/a	circle.bmp	circle.bmp	oval-vertical.bmp
146.130930901	1.8955979339999944	shape	0.736747026443	1.0	0.8	n/a	n/a	148.026528835	148.030647993	149.026433945	n/a	circle.bmp	oval-vertical.bmp	oval-vertical.bmp
149.12824893	1.8982059960000013	shape	0.883582115173	1.0	0.8	n/a	n/a	151.026454926	151.029952049	152.025872946	n/a	oval-horizontal.bmp	circle.bmp	circle.bmp
152.127312899	1.8997230530000024	shape	0.903954982758	1.0	0.8	n/a	n/a	154.027035952	154.030504942	155.025447845	n/a	oval-horizontal.bmp	oval-horizontal.bmp	circle.bmp
158.10974884	1.915779114000003	face	1.25286912918	1.0	0.8	155.10531497	158.024785042	160.025527954	160.030503035	161.025364876	n/a	20M_FE_O.jpg	21M_FE_O.jpg	21M_FE_O.jpg
161.177366018	1.848114014000004	face	0.803150892258	1.0	0.8	n/a	n/a	163.025480032	163.028981924	164.024122953	n/a	01F_AN_O.jpg	07F_AN_O.jpg	07F_AN_O.jpg
164.147114992	1.8781058789999747	face	0.919831991196	1.0	0.8	n/a	n/a	166.025220871	166.028687954	167.02472496	n/a	FFX_139.jpg	FFZ_102.jpg	FFZ_102.jpg
167.176053047	1.848840951999989	face	1.12054991722	1.0	0.8	n/a	n/a	169.024893999	169.028358936	170.023906946	n/a	23M_AN_O.jpg	23M_AN_O.jpg	22M_AN_O.jpg
170.148233891	1.8754179470000167	face	0.753618955612	1.0	0.8	n/a	n/a	172.023651838	172.027480841	173.024066925	n/a	MAZ_146.jpg	MAZ_146.jpg	MAX_233.jpg
173.170371056	1.853573799000003	face	1.40358304977	1.0	0.8	n/a	n/a	175.023944855	175.027717829	176.023633003	n/a	15F_FE_O.jpg	15F_FE_O.jpg	16F_FE_O.jpg
179.060909033	1.962179899000006	shape	0.817972183228	1.0	0.8	176.105676889	179.023145914	181.023088932	181.027570009	182.022426844	n/a	oval-horizontal.bmp	oval-vertical.bmp	oval-vertical.bmp
182.130839825	1.891818999999998	shape	0.61954498291	1.0	0.8	n/a	n/a	184.022658825	184.026538849	185.022209883	n/a	circle.bmp	oval-vertical.bmp	oval-vertical.bmp
185.12946701	1.8927509789999988	shape	0.786458969116	1.0	0.8	n/a	n/a	187.022217989	187.025703907	188.022295952	n/a	oval-horizontal.bmp	oval-horizontal.bmp	oval-vertical.bmp
188.127509832	1.894695998000003	shape	0.653491020203	1.0	0.8	n/a	n/a	190.02220583	190.025782824	191.021756887	n/a	oval-horizontal.bmp	oval-horizontal.bmp	circle.bmp
191.128504992	1.893373012000012	shape	0.903750896454	1.0	0.8	n/a	n/a	193.021878004	193.025352001	194.021637917	n/a	circle.bmp	circle.bmp	oval-vertical.bmp
194.127672911	1.8937559120000167	shape	0.803385019302	1.0	0.8	n/a	n/a	196.021428823	196.025303841	197.020825863	n/a	oval-horizontal.bmp	circle.bmp	circle.bmp
200.078258991	1.943369865999984	face	0.786573886871	1.0	0.8	197.104291916	200.019554853	202.021628857	202.026145935	203.020098925	n/a	FFX_54.jpg	FFX_54.jpg	FAX_51.jpg
203.156843901	1.8637530800000093	face	1.00344705582	1.0	0.8	n/a	n/a	205.020596981	205.024071932	206.019794941	n/a	40M_FE_O.BMP	41M_FE_O.jpg	41M_FE_O.jpg
206.169227839	1.850680111999992	face	0.75262594223	1.0	0.8	n/a	n/a	208.019907951	208.023871899	209.019592047	n/a	29M_AN_O.jpg	29M_AN_O.jpg	28M_AN_O.jpg
209.144270897	1.8752241130000016	face	0.869853973389	1.0	0.8	n/a	n/a	211.01949501	211.023116827	212.019196033	n/a	FFZ_18.jpg	FFZ_29.jpg	FFZ_29.jpg
212.174690008	1.837726831999987	face	1.06165003777	1.0	0.8	n/a	n/a	214.01241684	214.015945911	215.011128902	n/a	19F_AN_O.jpg	19F_AN_O.jpg	09F_AN_O.jpg
215.140434027	1.8792388440000136	face	0.786782026291	1.0	0.8	n/a	n/a	217.019672871	217.023243904	218.018450022	n/a	MFZ_132.jpg	MFZ_7.jpg	MFZ_7.jpg
221.054795027	1.9634819030000017	shape	0.686033010483	1.0	0.8	218.103339911	221.018098831	223.01827693	223.022887945	224.018465042	n/a	circle.bmp	oval-vertical.bmp	oval-vertical.bmp
224.126948833	1.8909101490000069	shape	0.736351966858	1.0	0.8	n/a	n/a	226.017858982	226.021425962	227.017838955	n/a	oval-horizontal.bmp	oval-horizontal.bmp	circle.bmp
227.128041983	1.8895120619999943	shape	0.796406984329	1.0	0.8	n/a	n/a	229.017554045	229.021289825	230.017164946	n/a	oval-horizontal.bmp	oval-vertical.bmp	oval-vertical.bmp
230.128962994	1.888929843999989	shape	0.678896903992	1.0	0.8	n/a	n/a	232.017892838	232.021700859	233.016717911	n/a	oval-horizontal.bmp	circle.bmp	circle.bmp
233.125762939	1.891252041000001	shape	0.93672990799	1.0	0.8	n/a	n/a	235.01701498	235.020532846	236.016468048	n/a	oval-horizontal.bmp	oval-horizontal.bmp	oval-vertical.bmp
236.12625885	1.8902680870000097	shape	0.86123418808	1.0	0.8	n/a	n/a	238.016526937	238.020071983	239.016607046	n/a	circle.bmp	circle.bmp	oval-vertical.bmp
242.093549013	1.923533916999986	face	1.24465298653	1.0	0.8	239.104615927	242.015876055	244.01708293	244.021816969	245.015450954	n/a	20M_FE_O.jpg	21M_FE_O.jpg	21M_FE_O.jpg
245.165673971	1.8503179550000084	face	1.09457015991	1.0	0.8	n/a	n/a	247.015991926	247.019467831	248.015017986	n/a	07F_AN_O.jpg	07F_AN_O.jpg	01F_AN_O.jpg
248.145349026	1.870574951000009	face	0.840224027634	1.0	0.8	n/a	n/a	250.015923977	250.019469023	251.01480484	n/a	FFZ_102.jpg	FFZ_102.jpg	FFX_139.jpg
251.166702986	1.8488588330000084	face	1.14377188683	1.0	0.8	n/a	n/a	253.015561819	253.019115925	254.014344931	n/a	22M_AN_O.jpg	23M_AN_O.jpg	23M_AN_O.jpg
254.143900871	1.8711390499999825	face	0.853227138519	1.0	0.8	n/a	n/a	256.015039921	256.018923998	257.013396025	n/a	MAX_233.jpg	MAZ_146.jpg	MAZ_146.jpg
257.16294384	1.8522300719999976	face	1.29237103462	1.0	0.8	n/a	n/a	259.015173912	259.018754005	260.013799906	n/a	15F_FE_O.jpg	15F_FE_O.jpg	16F_FE_O.jpg
263.052577019	1.961022853999964	shape	0.785472154617	1.0	0.8	260.103394985	263.013444901	265.013599873	265.018064022	266.013185024	n/a	oval-horizontal.bmp	oval-horizontal.bmp	oval-vertical.bmp
266.126845837	1.8864641189999816	shape	0.753082990646	0.0	0.8	n/a	n/a	268.013309956	268.017492056	269.013097048	n/a	oval-horizontal.bmp	oval-vertical.bmp	oval-vertical.bmp
269.127720833	1.885195017000001	shape	0.941605091095	1.0	0.8	n/a	n/a	271.01291585	271.016697884	272.012672901	n/a	circle.bmp	circle.bmp	oval-vertical.bmp
272.126011848	1.887012004999974	shape	0.921782016754	1.0	0.8	n/a	n/a	274.013023853	274.016566038	275.012429953	n/a	circle.bmp	oval-vertical.bmp	oval-vertical.bmp
275.129447937	1.882986068999969	shape	0.871912002563	1.0	0.8	n/a	n/a	277.012434006	277.015993834	278.011768818	n/a	oval-horizontal.bmp	circle.bmp	circle.bmp
278.12716794	1.8857820040000208	shape	0.758886098862	1.0	0.8	n/a	n/a	280.012949944	280.017242908	281.012197018	n/a	oval-horizontal.bmp	oval-horizontal.bmp	circle.bmp
284.092301846	1.9203062049999744	face	0.773123025894	1.0	0.8	281.108639956	284.02867198	286.012608051	286.017060995	287.011780024	n/a	FFZ_18.jpg	FAZ_129.jpg	FAZ_129.jpg
287.174142838	1.8379971979999823	face	1.09035801888	1.0	0.8	n/a	n/a	289.012140036	289.015725851	290.011605978	n/a	20M_FE_O.jpg	24M_FE_O.jpg	24M_FE_O.jpg
290.152079821	1.8764111990000167	face	0.871438026428	1.0	0.8	n/a	n/a	292.02849102	292.032510996	293.027462959	n/a	FAZ_23.jpg	FAX_25.jpg	FAX_25.jpg
293.188818932	1.8395910259999937	face	0.972337007523	1.0	0.8	n/a	n/a	295.028409958	295.031978846	296.02707386	n/a	33M_FE_O.jpg	33M_FE_O.jpg	35M_FE_O.jpg
296.192662954	1.8351249699999808	face	1.15519189835	1.0	0.8	n/a	n/a	298.027787924	298.031353951	299.026715994	n/a	01F_AN_O.jpg	01F_AN_O.jpg	02F_AN_O.jpg
299.164118052	1.862854002999996	face	1.07198691368	1.0	0.8	n/a	n/a	301.026972055	301.030586004	302.026795864	n/a	MFZ_132.jpg	MFZ_132.jpg	MFZ_120.jpg
305.064822912	1.961798907000002	shape	0.767422914505	0.0	0.8	302.12406683	305.02631402	307.026621819	307.031080008	308.024971962	n/a	oval-horizontal.bmp	oval-vertical.bmp	oval-vertical.bmp
308.147192001	1.879186868999966	shape	0.853657007217	1.0	0.8	n/a	n/a	310.02637887	310.029944897	311.025574923	n/a	circle.bmp	oval-vertical.bmp	oval-vertical.bmp
311.145862818	1.8794250489999629	shape	0.839818000793	1.0	0.8	n/a	n/a	313.025287867	313.0288589	314.025486946	n/a	oval-horizontal.bmp	oval-horizontal.bmp	oval-vertical.bmp
314.143347979	1.8812990179999929	shape	0.720385074615	1.0	0.8	n/a	n/a	316.024646997	316.028254032	317.024732828	n/a	oval-horizontal.bmp	oval-horizontal.bmp	circle.bmp
317.144320011	1.8808879850000155	shape	0.735450029373	1.0	0.8	n/a	n/a	319.025207996	319.028560877	320.023779869	n/a	circle.bmp	circle.bmp	oval-vertical.bmp
320.145190954	1.879426002999992	shape	0.753271818161	1.0	0.8	n/a	n/a	322.024616957	322.028192043	323.024584055	n/a	oval-horizontal.bmp	circle.bmp	circle.bmp
326.110797882	1.912616968000009	face	1.3857448101	1.0	0.8	323.121522903	326.023282051	328.02341485	328.027992964	329.023177862	n/a	17F_FE_O.jpg	18F_FE_O.jpg	18F_FE_O.jpg
329.186380863	1.8373341559999967	face	0.752810955048	1.0	0.8	n/a	n/a	331.023715019	331.027336836	332.022855043	n/a	42M_AN_O.jpg	43M_AN_O.jpg	43M_AN_O.jpg
332.186761856	1.836800098000026	face	0.736107110977	1.0	0.8	n/a	n/a	334.023561954	334.02716589	335.023108006	n/a	31M_FE_O.jpg	31M_FE_O.jpg	32M_FE_O.jpg
335.169093847	1.854194165000024	face	0.852630138397	1.0	0.8	n/a	n/a	337.023288012	337.026852846	338.022616863	n/a	FAZ_212.jpg	FFZ_236.jpg	FFZ_236.jpg
338.193362951	1.829062939000039	face	0.937545061111	1.0	0.8	n/a	n/a	340.02242589	340.026170015	341.022301912	n/a	06F_FE_O.jpg	06F_FE_O.jpg	08F_FE_O.jpg
341.15801096	1.864593981999974	face	0.753363132477	1.0	0.8	n/a	n/a	343.022604942	343.026424885	344.021848917	n/a	MAZ_128.jpg	MAZ_128.jpg	MAX_39.jpg
347.060490847	1.9620471000000064	shape	0.720136880875	1.0	0.8	344.120683908	347.021102905	349.022537947	349.027071953	350.021553993	n/a	circle.bmp	oval-vertical.bmp	oval-vertical.bmp
350.146391869	1.875406026000008	shape	0.769954919815	1.0	0.8	n/a	n/a	352.021797895	352.025858879	353.021092892	n/a	oval-horizontal.bmp	oval-horizontal.bmp	circle.bmp
353.146584988	1.8744089600000395	shape	0.817280054092	1.0	0.8	n/a	n/a	355.020993948	355.024621964	356.019809961	n/a	oval-horizontal.bmp	oval-vertical.bmp	oval-vertical.bmp
356.146643877	1.8738811020000408	shape	0.800604104996	1.0	0.8	n/a	n/a	358.020524979	358.024184942	359.02077198	n/a	oval-horizontal.bmp	circle.bmp	circle.bmp
359.143401861	1.876616001000002	shape	0.73711681366	1.0	0.8	n/a	n/a	361.020017862	361.023576975	362.019728899	n/a	oval-horizontal.bmp	oval-horizontal.bmp	oval-vertical.bmp
362.143223047	1.8764209750000305	shape	0.919988870621	1.0	0.8	n/a	n/a	364.019644022	364.023304939	365.019433975	n/a	circle.bmp	circle.bmp	oval-vertical.bmp
368.073655844	1.9457070820000129	face	0.619918107986	1.0	0.8	365.12252903	368.018285036	370.019362926	370.023774862	371.018710852	n/a	FFZ_18.jpg	FAZ_129.jpg	FAZ_129.jpg
371.18383503	1.835847854000008	face	1.13768601418	1.0	0.8	n/a	n/a	373.019682884	373.023268938	374.018789053	n/a	20M_FE_O.jpg	24M_FE_O.jpg	24M_FE_O.jpg
374.160292864	1.858309984000016	face	0.981142044067	1.0	0.8	n/a	n/a	376.018602848	376.022583961	377.018124819	n/a	FAZ_23.jpg	FAX_25.jpg	FAX_25.jpg
377.184873819	1.8341140750000025	face	0.83633184433	1.0	0.8	n/a	n/a	379.018987894	379.022580862	380.017740965	n/a	33M_FE_O.jpg	33M_FE_O.jpg	35M_FE_O.jpg
380.186637878	1.8319320680000144	face	0.737151861191	1.0	0.8	n/a	n/a	382.018569946	382.022196054	383.017447948	n/a	01F_AN_O.jpg	01F_AN_O.jpg	02F_AN_O.jpg
383.160157919	1.857268094999995	face	0.730865955353	1.0	0.8	n/a	n/a	385.017426014	385.021004915	386.016686916	394.416615963	MFZ_132.jpg	MFZ_132.jpg	MFZ_120.jpg
