onset	duration	trial_type	response_time	accuracy_binarized	tr_seconds	cueStartTime	cueEndTime	trialEndTime	fixStartTime	fixEndTime	runEndTime	stimLeft	stimTop	stimRight
11.0624170303	1.9694528579999984	shape	1.39506077766	1.0	0.8	8.02468800545	11.0146689415	13.0318698883	13.0372679234	14.0308690071	n/a	oval-horizontal.bmp	oval-horizontal.bmp	oval-vertical.bmp
14.1421380043	1.8889648913999988	shape	1.26124787331	1.0	0.8	n/a	n/a	16.0311028957	16.0350749493	17.0301508904	n/a	oval-horizontal.bmp	oval-vertical.bmp	oval-vertical.bmp
17.1312859058	1.8994851113000024	shape	0.927778959274	1.0	0.8	n/a	n/a	19.0307710171	19.0344400406	20.0301179886	n/a	circle.bmp	circle.bmp	oval-vertical.bmp
20.129119873	1.9008581639000008	shape	0.877503871918	1.0	0.8	n/a	n/a	22.0299780369	22.0337660313	23.0293700695	n/a	circle.bmp	oval-vertical.bmp	oval-vertical.bmp
23.1287539005	1.9011001587000005	shape	1.07612299919	1.0	0.8	n/a	n/a	25.0298540592	25.0334289074	26.0289869308	n/a	oval-horizontal.bmp	circle.bmp	circle.bmp
26.1253590584	1.9038178920999973	shape	1.20915794373	1.0	0.8	n/a	n/a	28.0291769505	28.0331559181	29.0287890434	n/a	oval-horizontal.bmp	oval-horizontal.bmp	circle.bmp
32.0841550827	1.9447619915000016	face	1.03567409515	1.0	0.8	29.1056609154	32.0224590302	34.0289170742	34.0336089134	35.0280239582	n/a	FAZ_23.jpg	FAZ_23.jpg	FAX_43.jpg
35.170320034	1.8531260490999983	face	1.03610396385	1.0	0.8	n/a	n/a	37.0234460831	37.0269920826	38.022644043	n/a	26M_FE_O.jpg	26M_FE_O.jpg	27M_FE_O.BMP
38.1465349197	1.8756110669	face	0.954477071762	1.0	0.8	n/a	n/a	40.0221459866	40.0262169838	41.0226180553	n/a	MFX_16.jpg	MFZ_50.jpg	MFZ_50.jpg
41.1732990742	1.8545768261000009	face	0.9078810215	1.0	0.8	n/a	n/a	43.0278759003	43.031482935	44.0263609886	n/a	09F_AN_O.jpg	09F_AN_O.jpg	10F_AN_O.jpg
44.1645848751	1.8631641865000008	face	1.08645009995	1.0	0.8	n/a	n/a	46.0277490616	46.0313150883	47.026736021	n/a	38M_AN_O.BMP	39M_AN_O.jpg	39M_AN_O.jpg
47.1492099762	1.8777320385	face	1.26989197731	1.0	0.8	n/a	n/a	49.0269420147	49.0309019089	50.0267369747	n/a	FFZ_102.jpg	FFX_130.jpg	FFX_130.jpg
53.0655810833	1.9609940052	shape	1.17093086243	1.0	0.8	50.1015300751	53.0264968872	55.0265750885	55.0311000347	56.0262999535	n/a	oval-horizontal.bmp	oval-vertical.bmp	oval-vertical.bmp
56.1248819828	1.900927066800001	shape	0.840506076813	1.0	0.8	n/a	n/a	58.0258090496	58.029417038	59.0254039764	n/a	circle.bmp	oval-vertical.bmp	oval-vertical.bmp
59.1295728683	1.895889043899999	shape	1.15729093552	1.0	0.8	n/a	n/a	61.0254619122	61.0290460587	62.0250599384	n/a	oval-horizontal.bmp	oval-horizontal.bmp	oval-vertical.bmp
62.1236469746	1.9019811152999964	shape	1.36965799332	1.0	0.8	n/a	n/a	64.0256280899	64.0293469429	65.0248038769	n/a	oval-horizontal.bmp	oval-horizontal.bmp	circle.bmp
65.1253969669	1.899882078200008	shape	0.822580099106	1.0	0.8	n/a	n/a	67.0252790451	67.0288660526	68.0244529247	n/a	circle.bmp	circle.bmp	oval-vertical.bmp
68.1238200665	1.9013049601999936	shape	1.05552101135	1.0	0.8	n/a	n/a	70.0251250267	70.0287070274	71.0244240761	n/a	oval-horizontal.bmp	circle.bmp	circle.bmp
74.1047759056	1.9201340675000007	face	1.27166891098	1.0	0.8	71.1001780033	74.023722887	76.0249099731	76.0297279358	77.0230228901	n/a	03F_FE_O.jpg	05F_FE_O.jpg	05F_FE_O.jpg
77.1497030258	1.874172926	face	1.23922181129	1.0	0.8	n/a	n/a	79.0238759518	79.0274450779	80.0229918957	n/a	FAZ_32.jpg	FAZ_32.jpg	FAX_45.jpg
80.1448409557	1.878699064299994	face	1.42193293571	1.0	0.8	n/a	n/a	82.02354002	82.0271170139	83.0226750374	n/a	MAZ_128.jpg	MAZ_101.jpg	MAZ_101.jpg
83.1671788692	1.856216192299996	face	1.45398402214	1.0	0.8	n/a	n/a	85.0233950615	85.0269858837	86.0223550797	n/a	11F_AN_O.jpg	11F_AN_O.jpg	12F_AN_O.jpg
86.1678569317	1.8542649745999995	face	0.953305959702	1.0	0.8	n/a	n/a	88.0221219063	88.0261080265	89.0221309662	n/a	26M_FE_O.jpg	33M_FE_O.jpg	33M_FE_O.jpg
89.1515359879	1.8710711001999984	face	1.10361385345	0.0	0.8	n/a	n/a	91.0226070881	91.026391983	92.021504879	n/a	MFZ_132.jpg	MFZ_132.jpg	MFZ_120.jpg
95.0581839085	1.963008165299996	shape	1.21809601784	1.0	0.8	92.1022019386	95.0213580132	97.0211920738	97.025621891	98.0203590393	n/a	circle.bmp	oval-vertical.bmp	oval-vertical.bmp
98.1246829033	1.8971869947000075	shape	0.884674072266	1.0	0.8	n/a	n/a	100.021869898	100.025877953	101.020516872	n/a	oval-horizontal.bmp	oval-horizontal.bmp	circle.bmp
101.124116898	1.8967080110000007	shape	0.90355682373	1.0	0.8	n/a	n/a	103.020824909	103.024652958	104.020209074	n/a	oval-horizontal.bmp	oval-vertical.bmp	oval-vertical.bmp
104.122364998	1.8984589580000064	shape	1.08660912514	1.0	0.8	n/a	n/a	106.020823956	106.024432898	107.020041943	n/a	oval-horizontal.bmp	circle.bmp	circle.bmp
107.122687101	1.8981587890000071	shape	1.22048616409	1.0	0.8	n/a	n/a	109.02084589	109.024388075	110.01969099	n/a	oval-horizontal.bmp	oval-horizontal.bmp	oval-vertical.bmp
110.125158072	1.8950119009999893	shape	0.938028097153	1.0	0.8	n/a	n/a	112.020169973	112.024147034	113.019917965	n/a	circle.bmp	circle.bmp	oval-vertical.bmp
116.088773966	1.947793007000001	face	1.52023601532	1.0	0.8	113.100311995	116.03628087	118.036566973	118.041887045	119.035410881	n/a	FAZ_23.jpg	FAZ_23.jpg	FAX_43.jpg
119.17156601	1.864600895999999	face	1.26859402657	1.0	0.8	n/a	n/a	121.036166906	121.039750099	122.035084963	n/a	26M_FE_O.jpg	26M_FE_O.jpg	27M_FE_O.BMP
122.155725002	1.8799970150000007	face	0.936456203461	1.0	0.8	n/a	n/a	124.035722017	124.039649963	125.034658909	n/a	MFZ_50.jpg	MFZ_50.jpg	MFX_16.jpg
125.187391996	1.8485040669999933	face	1.0536210537	1.0	0.8	n/a	n/a	127.035896063	127.039475918	128.03441	n/a	10F_AN_O.jpg	09F_AN_O.jpg	09F_AN_O.jpg
128.167623043	1.8679239749999963	face	1.3665060997	1.0	0.8	n/a	n/a	130.035547018	130.039144993	131.034686089	n/a	38M_AN_O.BMP	39M_AN_O.jpg	39M_AN_O.jpg
131.1620121	1.872017860999989	face	1.38182592392	1.0	0.8	n/a	n/a	133.034029961	133.037720919	134.033618927	n/a	FFZ_102.jpg	FFX_130.jpg	FFX_130.jpg
137.072390079	1.961653947999992	shape	1.13609814644	1.0	0.8	134.115690947	137.033770084	139.034044027	139.038547993	140.032999039	n/a	oval-horizontal.bmp	oval-horizontal.bmp	oval-vertical.bmp
140.137414932	1.895689010999973	shape	1.02063012123	1.0	0.8	n/a	n/a	142.033103943	142.036706924	143.032554865	n/a	oval-horizontal.bmp	oval-vertical.bmp	oval-vertical.bmp
143.138557911	1.8947761059999948	shape	1.18743300438	1.0	0.8	n/a	n/a	145.033334017	145.036912918	146.032576084	n/a	circle.bmp	circle.bmp	oval-vertical.bmp
146.141190052	1.891360044999999	shape	1.20290493965	1.0	0.8	n/a	n/a	148.032550097	148.036015987	149.032188892	n/a	circle.bmp	oval-vertical.bmp	oval-vertical.bmp
149.138848066	1.894032955	shape	0.937174081802	1.0	0.8	n/a	n/a	151.032881021	151.036449909	152.032219887	n/a	oval-horizontal.bmp	circle.bmp	circle.bmp
152.138786077	1.893346787000013	shape	1.07087898254	1.0	0.8	n/a	n/a	154.032132864	154.035553932	155.031378984	n/a	oval-horizontal.bmp	oval-horizontal.bmp	circle.bmp
158.113534927	1.918131113000016	face	1.66984987259	1.0	0.8	155.11549592	158.031341076	160.03166604	160.036374092	161.03063798	n/a	20M_FE_O.jpg	21M_FE_O.jpg	21M_FE_O.jpg
161.185180902	1.8457701209999868	face	1.78599095345	1.0	0.8	n/a	n/a	163.030951023	163.034697056	164.030314922	n/a	01F_AN_O.jpg	07F_AN_O.jpg	07F_AN_O.jpg
164.157365084	1.873785972000008	face	1.28021907806	1.0	0.8	n/a	n/a	166.031151056	166.03499198	167.030274868	n/a	FFX_139.jpg	FFZ_102.jpg	FFZ_102.jpg
167.17602706	1.8543050279999989	face	1.59615182877	1.0	0.8	n/a	n/a	169.030332088	169.034281969	170.029686928	n/a	23M_AN_O.jpg	23M_AN_O.jpg	22M_AN_O.jpg
170.158983946	1.8711929319999847	face	1.04605913162	1.0	0.8	n/a	n/a	172.030176878	172.034672976	173.029448986	n/a	MAZ_146.jpg	MAZ_146.jpg	MAX_233.jpg
173.183651924	1.8462469579999947	face	1.48661494255	1.0	0.8	n/a	n/a	175.029898882	175.033602953	176.028838873	n/a	15F_FE_O.jpg	15F_FE_O.jpg	16F_FE_O.jpg
179.066753864	1.962849140000003	shape	1.1034719944	1.0	0.8	176.113565922	179.028712988	181.029603004	181.034065008	182.028893948	n/a	oval-horizontal.bmp	oval-vertical.bmp	oval-vertical.bmp
182.138859987	1.889616967000024	shape	0.861150026321	1.0	0.8	n/a	n/a	184.028476954	184.032522917	185.028263092	n/a	circle.bmp	oval-vertical.bmp	oval-vertical.bmp
185.137897968	1.8903079039999968	shape	1.02762794495	1.0	0.8	n/a	n/a	187.028205872	187.031851053	188.027740955	n/a	oval-horizontal.bmp	oval-horizontal.bmp	oval-vertical.bmp
188.138729095	1.8896658429999889	shape	0.960195064545	1.0	0.8	n/a	n/a	190.028394938	190.032074928	191.027554989	n/a	oval-horizontal.bmp	oval-horizontal.bmp	circle.bmp
191.137914896	1.8895881179999776	shape	1.04472994804	1.0	0.8	n/a	n/a	193.027503014	193.031272888	194.027221918	n/a	circle.bmp	circle.bmp	oval-vertical.bmp
194.137754917	1.889363051000004	shape	0.960076093674	1.0	0.8	n/a	n/a	196.027117968	196.031066895	197.027127981	n/a	oval-horizontal.bmp	circle.bmp	circle.bmp
200.088483095	1.9328429700000245	face	1.32089090347	1.0	0.8	197.117220879	200.026566982	202.021326065	202.02579093	203.020586014	n/a	FFX_54.jpg	FFX_54.jpg	FAX_51.jpg
203.162054062	1.86436295499999	face	1.06928396225	1.0	0.8	n/a	n/a	205.026417017	205.03047204	206.025280952	n/a	40M_FE_O.BMP	41M_FE_O.jpg	41M_FE_O.jpg
206.174179077	1.846127987000017	face	1.10371494293	1.0	0.8	n/a	n/a	208.020307064	208.024319887	209.020370007	n/a	29M_AN_O.jpg	29M_AN_O.jpg	28M_AN_O.jpg
209.148643017	1.87724184999999	face	1.33504104614	1.0	0.8	n/a	n/a	211.025884867	211.029484987	212.02441597	n/a	FFZ_18.jpg	FFZ_29.jpg	FFZ_29.jpg
212.186105967	1.83941698000001	face	1.50491213799	1.0	0.8	n/a	n/a	214.025522947	214.029099941	215.02461195	n/a	19F_AN_O.jpg	19F_AN_O.jpg	09F_AN_O.jpg
215.155893087	1.869210958999986	face	1.03877902031	1.0	0.8	n/a	n/a	217.025104046	217.028793097	218.02441287	n/a	MFZ_132.jpg	MFZ_7.jpg	MFZ_7.jpg
221.060883999	1.9635760779999885	shape	1.05839896202	1.0	0.8	218.11252594	221.023986101	223.024460077	223.02895999	224.023609877	n/a	circle.bmp	oval-vertical.bmp	oval-vertical.bmp
224.136362076	1.8879299159999905	shape	0.857575893402	1.0	0.8	n/a	n/a	226.024291992	226.027844906	227.024137974	n/a	oval-horizontal.bmp	oval-horizontal.bmp	circle.bmp
227.137273073	1.885891915000002	shape	0.956560850143	1.0	0.8	n/a	n/a	229.023164988	229.026721001	230.023096085	n/a	oval-horizontal.bmp	oval-vertical.bmp	oval-vertical.bmp
230.138906002	1.884902000000011	shape	1.07370591164	1.0	0.8	n/a	n/a	232.023808002	232.02759099	233.022553921	n/a	oval-horizontal.bmp	circle.bmp	circle.bmp
233.135573864	1.887765169000005	shape	1.00642108917	1.0	0.8	n/a	n/a	235.023339033	235.026957035	236.022202969	n/a	oval-horizontal.bmp	oval-horizontal.bmp	oval-vertical.bmp
236.136333942	1.886320115000018	shape	1.00672912598	1.0	0.8	n/a	n/a	238.022654057	238.026279926	239.021943092	n/a	circle.bmp	circle.bmp	oval-vertical.bmp
242.103868008	1.9179890149999888	face	1.85511994362	1.0	0.8	239.112350941	242.022219896	244.021857023	244.026683092	245.02128005	n/a	20M_FE_O.jpg	21M_FE_O.jpg	21M_FE_O.jpg
245.178355932	1.8441560270000248	face	1.0380320549	1.0	0.8	n/a	n/a	247.022511959	247.026118994	248.019996881	n/a	07F_AN_O.jpg	07F_AN_O.jpg	01F_AN_O.jpg
248.15319705	1.8687980180000068	face	1.35313916206	1.0	0.8	n/a	n/a	250.021995068	250.025619984	251.020440102	n/a	FFZ_102.jpg	FFZ_102.jpg	FFX_139.jpg
251.173197031	1.8480498790000013	face	1.63683605194	1.0	0.8	n/a	n/a	253.02124691	253.02491498	254.020261049	n/a	22M_AN_O.jpg	23M_AN_O.jpg	23M_AN_O.jpg
254.151777029	1.8689990040000168	face	1.05363106728	1.0	0.8	n/a	n/a	256.020776033	256.024766922	257.020046949	n/a	MAX_233.jpg	MAZ_146.jpg	MAZ_146.jpg
257.179738998	1.840632916000004	face	1.47089600563	1.0	0.8	n/a	n/a	259.020371914	259.024018049	260.019821882	n/a	15F_FE_O.jpg	15F_FE_O.jpg	16F_FE_O.jpg
263.073374033	1.9468100070000105	shape	1.12056708336	1.0	0.8	260.111293077	263.036252022	265.02018404	265.024618864	266.019521952	n/a	oval-horizontal.bmp	oval-horizontal.bmp	oval-vertical.bmp
266.131654978	1.903564930000016	shape	0.903621912003	1.0	0.8	n/a	n/a	268.035219908	268.039117098	269.034801006	n/a	oval-horizontal.bmp	oval-vertical.bmp	oval-vertical.bmp
269.150846004	1.8843970300000024	shape	1.20365095139	1.0	0.8	n/a	n/a	271.035243034	271.038810968	272.034740925	n/a	circle.bmp	circle.bmp	oval-vertical.bmp
272.149883032	1.885408878000021	shape	1.00263595581	1.0	0.8	n/a	n/a	274.03529191	274.038853884	275.034784079	n/a	circle.bmp	oval-vertical.bmp	oval-vertical.bmp
275.150300026	1.8846709729999704	shape	1.1699090004	1.0	0.8	n/a	n/a	277.034970999	277.038556099	278.034277916	n/a	oval-horizontal.bmp	circle.bmp	circle.bmp
278.149651051	1.8852159970000453	shape	1.73462200165	1.0	0.8	n/a	n/a	280.034867048	280.038677931	281.034657001	n/a	oval-horizontal.bmp	oval-horizontal.bmp	circle.bmp
284.097434044	1.9369900229999644	face	1.06730103493	1.0	0.8	281.13071394	284.033663988	286.034424067	286.038924932	287.033941031	n/a	FFZ_18.jpg	FAZ_129.jpg	FAZ_129.jpg
287.196491003	1.837323904000016	face	1.61953091621	1.0	0.8	n/a	n/a	289.033814907	289.037466049	290.033053875	n/a	20M_FE_O.jpg	24M_FE_O.jpg	24M_FE_O.jpg
290.172657013	1.861600876000012	face	1.00316691399	1.0	0.8	n/a	n/a	292.034257889	292.037986994	293.032641888	n/a	FAZ_23.jpg	FAX_25.jpg	FAX_25.jpg
293.192014933	1.8411929600000008	face	1.1018269062	1.0	0.8	n/a	n/a	295.033207893	295.037179947	296.03215909	n/a	33M_FE_O.jpg	33M_FE_O.jpg	35M_FE_O.jpg
296.191366911	1.84165716199999	face	1.09903693199	1.0	0.8	n/a	n/a	298.033024073	298.036592007	299.031735897	n/a	01F_AN_O.jpg	01F_AN_O.jpg	02F_AN_O.jpg
299.170741081	1.8621668819999968	face	n/a	0.0	0.8	n/a	n/a	301.032907963	301.039381981	302.032103062	n/a	MFZ_132.jpg	MFZ_132.jpg	MFZ_120.jpg
305.070509911	1.9611241810000024	shape	1.05293011665	1.0	0.8	302.126540899	305.031585932	307.031634092	307.036294937	308.030737877	n/a	oval-horizontal.bmp	oval-vertical.bmp	oval-vertical.bmp
308.147134066	1.8840348720000293	shape	0.803295135498	1.0	0.8	n/a	n/a	310.031168938	310.034744024	311.030513048	n/a	circle.bmp	oval-vertical.bmp	oval-vertical.bmp
311.149991989	1.8808999060000249	shape	0.88721203804	1.0	0.8	n/a	n/a	313.030891895	313.034485102	314.030232906	n/a	oval-horizontal.bmp	oval-horizontal.bmp	oval-vertical.bmp
314.150372028	1.8801028729999985	shape	1.10354399681	1.0	0.8	n/a	n/a	316.030474901	316.03409791	317.03017807	n/a	oval-horizontal.bmp	oval-horizontal.bmp	circle.bmp
317.147845984	1.882132052999964	shape	1.63580703735	1.0	0.8	n/a	n/a	319.029978037	319.033612967	320.029684067	n/a	circle.bmp	circle.bmp	oval-vertical.bmp
320.149180889	1.8804969790000428	shape	0.954215049744	1.0	0.8	n/a	n/a	322.029677868	322.033616066	323.029079914	n/a	oval-horizontal.bmp	circle.bmp	circle.bmp
326.117053986	1.9129281040000023	face	1.58384799957	1.0	0.8	323.124686003	326.028989077	328.02998209	328.034471989	329.027728081	n/a	17F_FE_O.jpg	18F_FE_O.jpg	18F_FE_O.jpg
329.19340992	1.8352720729999987	face	0.880370855331	1.0	0.8	n/a	n/a	331.028681993	331.032512903	332.028306007	n/a	42M_AN_O.jpg	43M_AN_O.jpg	43M_AN_O.jpg
332.189019918	1.8396861560000275	face	1.27984786034	1.0	0.8	n/a	n/a	334.028706074	334.032444954	335.027829885	n/a	31M_FE_O.jpg	31M_FE_O.jpg	32M_FE_O.jpg
335.168169022	1.8606898780000165	face	1.01955699921	1.0	0.8	n/a	n/a	337.0288589	337.032433987	338.027541876	n/a	FAZ_212.jpg	FFZ_236.jpg	FFZ_236.jpg
338.191457033	1.8365910050000025	face	1.31136012077	1.0	0.8	n/a	n/a	340.028048038	340.032558918	341.027213097	n/a	06F_FE_O.jpg	06F_FE_O.jpg	08F_FE_O.jpg
341.162672043	1.8650510310000072	face	1.135668993	1.0	0.8	n/a	n/a	343.027723074	343.031689882	344.027061939	n/a	MAZ_128.jpg	MAZ_128.jpg	MAX_39.jpg
347.065670013	1.9612748630000283	shape	1.13522815704	1.0	0.8	344.125050068	347.027544022	349.026944876	349.031936884	350.026638985	n/a	circle.bmp	oval-vertical.bmp	oval-vertical.bmp
350.147592068	1.8785278789999893	shape	1.31903600693	1.0	0.8	n/a	n/a	352.026119947	352.030040979	353.025829077	n/a	oval-horizontal.bmp	oval-horizontal.bmp	circle.bmp
353.147763968	1.878318071000024	shape	1.01942801476	1.0	0.8	n/a	n/a	355.026082039	355.029691935	356.025755882	n/a	oval-horizontal.bmp	oval-vertical.bmp	oval-vertical.bmp
356.149209023	1.8761239049999856	shape	1.55304098129	1.0	0.8	n/a	n/a	358.025332928	358.028914928	359.025160074	n/a	oval-horizontal.bmp	circle.bmp	circle.bmp
359.149719	1.8761250969999992	shape	1.60184001923	1.0	0.8	n/a	n/a	361.025844097	361.029601097	362.024817944	n/a	oval-horizontal.bmp	oval-horizontal.bmp	oval-vertical.bmp
362.1447649	1.8802680969999983	shape	1.58678388596	1.0	0.8	n/a	n/a	364.025032997	364.029268026	365.02499795	n/a	circle.bmp	circle.bmp	oval-vertical.bmp
368.079815865	1.9452760219999727	face	1.08763289452	1.0	0.8	365.127347946	368.024281025	370.025091887	370.029697895	371.024034023	n/a	FFZ_18.jpg	FAZ_129.jpg	FAZ_129.jpg
371.190358877	1.8340430260000176	face	1.3433098793	1.0	0.8	n/a	n/a	373.024401903	373.028011084	374.023627043	n/a	20M_FE_O.jpg	24M_FE_O.jpg	24M_FE_O.jpg
374.161417961	1.863424063000025	face	0.987306118011	1.0	0.8	n/a	n/a	376.024842024	376.029094934	377.024013996	n/a	FAZ_23.jpg	FAX_25.jpg	FAX_25.jpg
377.18739295	1.8363199230000191	face	0.958254098892	1.0	0.8	n/a	n/a	379.023712873	379.027301073	380.022317886	n/a	33M_FE_O.jpg	33M_FE_O.jpg	35M_FE_O.jpg
380.186284065	1.8371348379999968	face	0.99235200882	1.0	0.8	n/a	n/a	382.023418903	382.027004957	383.022526979	n/a	01F_AN_O.jpg	01F_AN_O.jpg	02F_AN_O.jpg
383.16210103	1.8608210090000057	face	1.68672609329	1.0	0.8	n/a	n/a	385.022922039	385.02651	386.022840977	394.421272993	MFZ_132.jpg	MFZ_132.jpg	MFZ_120.jpg
