onset	duration	trial_type	response_time	accuracy_binarized	tr_seconds	cueStartTime	cueEndTime	trialEndTime	fixStartTime	fixEndTime	runEndTime	stimLeft	stimTop	stimRight
11.0945940018	1.9499590396999995	shape	1.05905294418	1.0	0.8	8.03849506378	11.0290629864	13.0445530415	13.0627429485	14.0439841747	n/a	oval-horizontal.bmp	oval-horizontal.bmp	oval-vertical.bmp
14.1944460869	1.8502089977	shape	0.722916841507	1.0	0.8	n/a	n/a	16.0446550846	16.0616459846	17.0432050228	n/a	oval-horizontal.bmp	oval-vertical.bmp	oval-vertical.bmp
17.1791570187	1.8637671470000008	shape	0.570331096649	1.0	0.8	n/a	n/a	19.0429241657	19.0615739822	20.0433659554	n/a	circle.bmp	circle.bmp	oval-vertical.bmp
20.1796810627	1.8630158901000016	shape	0.634775876999	1.0	0.8	n/a	n/a	22.0426969528	22.0603311062	23.040995121	n/a	circle.bmp	oval-vertical.bmp	oval-vertical.bmp
23.178771019	1.8627021313000007	shape	0.619060993195	1.0	0.8	n/a	n/a	25.0414731503	25.0589060783	26.0403110981	n/a	oval-horizontal.bmp	circle.bmp	circle.bmp
26.1767790318	1.8635470867000024	shape	0.569225788116	1.0	0.8	n/a	n/a	28.0403261185	28.0578229427	29.0397939682	n/a	oval-horizontal.bmp	oval-horizontal.bmp	circle.bmp
32.1195211411	1.9190278052999967	face	0.841804027557	1.0	0.8	29.122647047	32.0382080078	34.0385489464	34.0559680462	35.0344970226	n/a	FAZ_23.jpg	FAZ_23.jpg	FAX_43.jpg
35.2081830502	1.8296680449999985	face	1.21949219704	1.0	0.8	n/a	n/a	37.0378510952	37.0563390255	38.0378510952	n/a	26M_FE_O.jpg	26M_FE_O.jpg	27M_FE_O.BMP
38.1905679703	1.8468461036000008	face	0.75328207016	1.0	0.8	n/a	n/a	40.0374140739	40.0545201302	41.0366880894	n/a	MFX_16.jpg	MFZ_50.jpg	MFZ_50.jpg
41.2228441238	1.812732935	face	0.767659902573	1.0	0.8	n/a	n/a	43.0355770588	43.0542030334	44.0353951454	n/a	09F_AN_O.jpg	09F_AN_O.jpg	10F_AN_O.jpg
44.2041180134	1.830814123099998	face	0.652549982071	1.0	0.8	n/a	n/a	46.0349321365	46.0523929596	47.0342280865	n/a	38M_AN_O.BMP	39M_AN_O.jpg	39M_AN_O.jpg
47.1867239475	1.8482241631	face	0.819670915604	1.0	0.8	n/a	n/a	49.0349481106	49.0527040958	50.0341191292	n/a	FFZ_102.jpg	FFX_130.jpg	FFX_130.jpg
53.1131379604	1.936454057699997	shape	0.60849404335	1.0	0.8	50.124984026	53.0494179726	55.0495920181	55.0674459934	56.0453829765	n/a	oval-horizontal.bmp	oval-vertical.bmp	oval-vertical.bmp
56.1811871529	1.8670599459999977	shape	0.619431018829	1.0	0.8	n/a	n/a	58.0482470989	58.0661261082	59.0479650497	n/a	circle.bmp	oval-vertical.bmp	oval-vertical.bmp
59.1837861538	1.864399910000003	shape	0.787410974503	1.0	0.8	n/a	n/a	61.0481860638	61.065734148	62.0468540192	n/a	oval-horizontal.bmp	oval-horizontal.bmp	oval-vertical.bmp
62.1834471226	1.8633198737999948	shape	0.901225090027	1.0	0.8	n/a	n/a	64.0467669964	64.0649621487	65.0459160805	n/a	oval-horizontal.bmp	oval-horizontal.bmp	circle.bmp
65.1993310452	1.8466939926000088	shape	0.954519987106	1.0	0.8	n/a	n/a	67.0460250378	67.0634801388	68.0453460217	n/a	circle.bmp	circle.bmp	oval-vertical.bmp
68.1877250671	1.8577709197999888	shape	0.61502790451	1.0	0.8	n/a	n/a	70.0454959869	70.0624861717	71.0444791317	n/a	oval-horizontal.bmp	circle.bmp	circle.bmp
74.1624400616	1.8783130645000057	face	1.10484194756	1.0	0.8	71.1493830681	74.0431940556	76.0407531261	76.0582239628	77.0412721634	n/a	03F_FE_O.jpg	05F_FE_O.jpg	05F_FE_O.jpg
77.2433481216	1.7997009755000022	face	0.723690032959	1.0	0.8	n/a	n/a	79.0430490971	79.0609431267	80.0423951149	n/a	FAZ_32.jpg	FAZ_32.jpg	FAX_45.jpg
80.2624020576	1.7802720070000078	face	1.30420899391	1.0	0.8	n/a	n/a	82.0426740646	82.0608580112	83.0417900085	n/a	MAZ_128.jpg	MAZ_101.jpg	MAZ_101.jpg
83.2434799671	1.7972800731999996	face	1.13182401657	1.0	0.8	n/a	n/a	85.0407600403	85.0596580505	86.0399949551	n/a	11F_AN_O.jpg	11F_AN_O.jpg	12F_AN_O.jpg
86.2643201351	1.7753038407000048	face	0.797748088837	1.0	0.8	n/a	n/a	88.0396239758	88.0578160286	89.0388269424	n/a	26M_FE_O.jpg	33M_FE_O.jpg	33M_FE_O.jpg
89.2366161346	1.8020958901000057	face	0.996389865875	1.0	0.8	n/a	n/a	91.0387120247	91.0569040775	92.0379941463	n/a	MFZ_132.jpg	MFZ_132.jpg	MFZ_120.jpg
95.1015739441	1.949423074700008	shape	0.654105901718	1.0	0.8	92.1364459991	95.0373489857	97.0509970188	97.0683009624	98.0345520973	n/a	circle.bmp	oval-vertical.bmp	oval-vertical.bmp
98.1864509583	1.850530147699999	shape	0.870141029358	1.0	0.8	n/a	n/a	100.036981106	100.054290056	101.035650969	n/a	oval-horizontal.bmp	oval-horizontal.bmp	circle.bmp
101.188339949	1.8476572029999967	shape	0.686106920242	1.0	0.8	n/a	n/a	103.035997152	103.053761959	104.034480095	n/a	oval-horizontal.bmp	oval-vertical.bmp	oval-vertical.bmp
104.190757036	1.844244004000004	shape	1.06746006012	1.0	0.8	n/a	n/a	106.03500104	106.052963972	107.033620119	n/a	oval-horizontal.bmp	circle.bmp	circle.bmp
107.169399023	1.8645839690000088	shape	0.803296089172	1.0	0.8	n/a	n/a	109.033982992	109.05176115	110.049306154	n/a	oval-horizontal.bmp	oval-horizontal.bmp	oval-vertical.bmp
110.202528954	1.846968173999997	shape	0.769884109497	1.0	0.8	n/a	n/a	112.049497128	112.066962957	113.048928976	n/a	circle.bmp	circle.bmp	oval-vertical.bmp
116.129062176	1.915196894999994	face	0.7369120121	1.0	0.8	113.151713133	116.048066139	118.044259071	118.062693119	119.044162035	n/a	FAZ_23.jpg	FAZ_23.jpg	FAX_43.jpg
119.230405092	1.816683053999995	face	0.771696805954	1.0	0.8	n/a	n/a	121.047088146	121.065020084	122.047111988	n/a	26M_FE_O.jpg	26M_FE_O.jpg	27M_FE_O.BMP
122.216535091	1.829272032000005	face	0.753805875778	1.0	0.8	n/a	n/a	124.045807123	124.06380415	125.045534134	n/a	MFZ_50.jpg	MFZ_50.jpg	MFX_16.jpg
125.249613047	1.7960588930000083	face	1.08501505852	1.0	0.8	n/a	n/a	127.04567194	127.063333988	128.044371128	n/a	10F_AN_O.jpg	09F_AN_O.jpg	09F_AN_O.jpg
128.230188131	1.813849925999989	face	0.719642877579	1.0	0.8	n/a	n/a	130.044038057	130.061424017	131.043195009	n/a	38M_AN_O.BMP	39M_AN_O.jpg	39M_AN_O.jpg
131.213206053	1.830245018	face	0.750744104385	1.0	0.8	n/a	n/a	133.043451071	133.061094999	134.04204917	n/a	FFZ_102.jpg	FFX_130.jpg	FFX_130.jpg
137.094584942	1.944967030999976	shape	0.7871530056	1.0	0.8	134.150302172	137.042001963	139.039551973	139.056723118	140.038834095	n/a	oval-horizontal.bmp	oval-horizontal.bmp	oval-vertical.bmp
140.191485167	1.8496649260000029	shape	0.589313983917	1.0	0.8	n/a	n/a	142.041150093	142.059504032	143.040836096	n/a	oval-horizontal.bmp	oval-vertical.bmp	oval-vertical.bmp
143.192533016	1.8477120400000049	shape	0.636096954346	1.0	0.8	n/a	n/a	145.040245056	145.057857037	146.039930105	n/a	circle.bmp	circle.bmp	oval-vertical.bmp
146.1918571	1.8468389509999952	shape	0.586471796036	1.0	0.8	n/a	n/a	148.038696051	148.058331966	149.038568974	n/a	circle.bmp	oval-vertical.bmp	oval-vertical.bmp
149.178658962	1.8594532020000256	shape	0.647301912308	1.0	0.8	n/a	n/a	151.038112164	151.05528903	152.037748098	n/a	oval-horizontal.bmp	circle.bmp	circle.bmp
152.180497169	1.856804847999996	shape	0.645656108856	1.0	0.8	n/a	n/a	154.037302017	154.055561066	155.036661148	n/a	oval-horizontal.bmp	oval-horizontal.bmp	circle.bmp
158.134360075	1.9154460430000029	face	0.920377016068	0.0	0.8	155.141680002	158.035753012	160.049806118	160.067402124	161.049574137	n/a	20M_FE_O.jpg	21M_FE_O.jpg	21M_FE_O.jpg
161.253440142	1.782131910000004	face	0.755100011826	1.0	0.8	n/a	n/a	163.035572052	163.053122044	164.033835173	n/a	01F_AN_O.jpg	07F_AN_O.jpg	07F_AN_O.jpg
164.204318047	1.8296968930000048	face	0.685672998428	1.0	0.8	n/a	n/a	166.03401494	166.05240798	167.050831079	n/a	FFX_139.jpg	FFZ_102.jpg	FFZ_102.jpg
167.252279043	1.7969350820000043	face	0.853365898132	1.0	0.8	n/a	n/a	169.049214125	169.067594051	170.048797131	n/a	23M_AN_O.jpg	23M_AN_O.jpg	22M_AN_O.jpg
170.217952967	1.8301730149999853	face	0.703832864761	1.0	0.8	n/a	n/a	172.048125982	172.066365004	173.047543049	n/a	MAZ_146.jpg	MAZ_146.jpg	MAX_233.jpg
173.233081102	1.813991069999986	face	0.819696903229	1.0	0.8	n/a	n/a	175.047072172	175.065577984	176.046936989	n/a	15F_FE_O.jpg	15F_FE_O.jpg	16F_FE_O.jpg
179.098715067	1.944689989000011	shape	0.753645896912	1.0	0.8	176.151963949	179.046525955	181.043405056	181.061172009	182.045423031	n/a	oval-horizontal.bmp	oval-vertical.bmp	oval-vertical.bmp
182.198712111	1.8473658560000104	shape	0.519524097443	1.0	0.8	n/a	n/a	184.046077967	184.063554049	185.045269966	n/a	circle.bmp	oval-vertical.bmp	oval-vertical.bmp
185.196820021	1.84823107699998	shape	0.636395931244	1.0	0.8	n/a	n/a	187.045051098	187.063698053	188.044154167	n/a	oval-horizontal.bmp	oval-horizontal.bmp	oval-vertical.bmp
188.197533131	1.8457279200000016	shape	0.766240119934	1.0	0.8	n/a	n/a	190.043261051	190.061666965	191.043012142	n/a	oval-horizontal.bmp	oval-horizontal.bmp	circle.bmp
191.184396029	1.858005999999989	shape	0.819541931152	1.0	0.8	n/a	n/a	193.042402029	193.060346127	194.042021036	n/a	circle.bmp	circle.bmp	oval-vertical.bmp
194.194308996	1.8478860860000168	shape	0.566226959229	1.0	0.8	n/a	n/a	196.042195082	196.059113979	197.040389061	n/a	oval-horizontal.bmp	circle.bmp	circle.bmp
200.122194052	1.9159829609999968	face	0.620309114456	1.0	0.8	197.149574995	200.040177107	202.038177013	202.055695057	203.039945126	n/a	FFX_54.jpg	FFX_54.jpg	FAX_51.jpg
203.240209103	1.799685955000001	face	0.668519973755	1.0	0.8	n/a	n/a	205.039895058	205.057566166	206.038257122	n/a	40M_FE_O.BMP	41M_FE_O.jpg	41M_FE_O.jpg
206.225401163	1.8131978510000124	face	0.852581977844	1.0	0.8	n/a	n/a	208.038599014	208.056921959	209.037482977	n/a	29M_AN_O.jpg	29M_AN_O.jpg	28M_AN_O.jpg
209.207499981	1.8299851419999984	face	0.737343072891	1.0	0.8	n/a	n/a	211.037485123	211.055258036	212.036277056	n/a	FFZ_18.jpg	FFZ_29.jpg	FFZ_29.jpg
212.228142977	1.8079981799999985	face	0.663974046707	1.0	0.8	n/a	n/a	214.036141157	214.054216146	215.035704136	n/a	19F_AN_O.jpg	19F_AN_O.jpg	09F_AN_O.jpg
215.196032047	1.8399069310000016	face	0.844741106033	1.0	0.8	n/a	n/a	217.035938978	217.053117037	218.035148144	n/a	MFZ_132.jpg	MFZ_7.jpg	MFZ_7.jpg
221.099372149	1.9489319319999936	shape	0.586728096008	1.0	0.8	218.143059969	221.034021139	223.048304081	223.066161156	224.033388138	n/a	circle.bmp	oval-vertical.bmp	oval-vertical.bmp
224.184246063	1.8661370279999967	shape	0.804782867432	1.0	0.8	n/a	n/a	226.050383091	226.067784071	227.049303055	n/a	oval-horizontal.bmp	oval-horizontal.bmp	circle.bmp
227.205983162	1.8434967990000075	shape	0.652523994446	1.0	0.8	n/a	n/a	229.049479961	229.066622972	230.048735142	n/a	oval-horizontal.bmp	oval-vertical.bmp	oval-vertical.bmp
230.204982042	1.8423969749999856	shape	0.662554979324	1.0	0.8	n/a	n/a	232.047379017	232.066169977	233.047405958	n/a	oval-horizontal.bmp	circle.bmp	circle.bmp
233.233194113	1.8135509490000168	shape	0.687156915665	1.0	0.8	n/a	n/a	235.046745062	235.064116001	236.046070099	n/a	oval-horizontal.bmp	oval-horizontal.bmp	oval-vertical.bmp
236.198246002	1.8482820990000164	shape	0.710159063339	1.0	0.8	n/a	n/a	238.046528101	238.063328981	239.045881033	n/a	circle.bmp	circle.bmp	oval-vertical.bmp
242.143250942	1.899725198999988	face	1.83763813972	1.0	0.8	239.156409979	242.044523954	244.042976141	244.060222149	245.044123173	n/a	20M_FE_O.jpg	21M_FE_O.jpg	21M_FE_O.jpg
245.245300055	1.7987480159999905	face	0.738136053085	1.0	0.8	n/a	n/a	247.044048071	247.061244965	248.043622971	n/a	07F_AN_O.jpg	07F_AN_O.jpg	01F_AN_O.jpg
248.213648081	1.8289649479999923	face	0.686169862747	1.0	0.8	n/a	n/a	250.042613029	250.061084986	251.041625023	n/a	FFZ_102.jpg	FFZ_102.jpg	FFX_139.jpg
251.244534016	1.7970581050000192	face	1.11982393265	1.0	0.8	n/a	n/a	253.041592121	253.059283972	254.040961027	n/a	22M_AN_O.jpg	23M_AN_O.jpg	23M_AN_O.jpg
254.217344046	1.82381510700003	face	0.911703109741	1.0	0.8	n/a	n/a	256.041159153	256.059123993	257.03985405	n/a	MAX_233.jpg	MAZ_146.jpg	MAZ_146.jpg
257.235298157	1.8049948210000368	face	0.728377103806	1.0	0.8	n/a	n/a	259.040292978	259.058290958	260.039805174	n/a	15F_FE_O.jpg	15F_FE_O.jpg	16F_FE_O.jpg
263.09078908	1.9454650880000488	shape	0.753738880157	1.0	0.8	260.153288126	263.038359165	265.036254168	265.054674149	266.037970066	n/a	oval-horizontal.bmp	oval-horizontal.bmp	oval-vertical.bmp
266.206772089	1.8313539029999788	shape	0.818320989609	1.0	0.8	n/a	n/a	268.038125992	268.055670023	269.037780046	n/a	oval-horizontal.bmp	oval-vertical.bmp	oval-vertical.bmp
269.189898014	1.8475260740000288	shape	0.668847799301	1.0	0.8	n/a	n/a	271.037424088	271.055540085	272.036250114	n/a	circle.bmp	circle.bmp	oval-vertical.bmp
272.18808198	1.847985983000001	shape	0.816418886185	1.0	0.8	n/a	n/a	274.036067963	274.053166151	275.03521204	n/a	circle.bmp	oval-vertical.bmp	oval-vertical.bmp
275.186941147	1.8479490279999595	shape	0.63697886467	1.0	0.8	n/a	n/a	277.034890175	277.052792072	278.033879042	n/a	oval-horizontal.bmp	circle.bmp	circle.bmp
278.186573982	1.84758710899996	shape	0.608926057816	1.0	0.8	n/a	n/a	280.034161091	280.051634073	281.049607038	n/a	oval-horizontal.bmp	oval-horizontal.bmp	circle.bmp
284.131306171	1.9181189540000216	face	0.787195920944	1.0	0.8	281.164736032	284.045675039	286.049425125	286.06724	287.048784018	n/a	FFZ_18.jpg	FAZ_129.jpg	FAZ_129.jpg
287.267128944	1.781381131000046	face	0.787600040436	1.0	0.8	n/a	n/a	289.048510075	289.066068172	290.047321081	n/a	20M_FE_O.jpg	24M_FE_O.jpg	24M_FE_O.jpg
290.217525005	1.829759120999995	face	0.766252994537	1.0	0.8	n/a	n/a	292.047284126	292.065443039	293.047115088	n/a	FAZ_23.jpg	FAX_25.jpg	FAX_25.jpg
293.248449087	1.797975063000024	face	0.750383853912	1.0	0.8	n/a	n/a	295.04642415	295.06397295	296.045362949	n/a	33M_FE_O.jpg	33M_FE_O.jpg	35M_FE_O.jpg
296.254650116	1.79027295100002	face	0.729377985001	1.0	0.8	n/a	n/a	298.044923067	298.063959122	299.044739008	n/a	01F_AN_O.jpg	01F_AN_O.jpg	02F_AN_O.jpg
299.223601103	1.821002959999987	face	0.727478027344	1.0	0.8	n/a	n/a	301.044604063	301.061884165	302.043179035	n/a	MFZ_132.jpg	MFZ_132.jpg	MFZ_120.jpg
305.09524107	1.9485180380000315	shape	0.671085834503	1.0	0.8	302.162919998	305.043318987	307.043759108	307.060829163	308.042222023	n/a	oval-horizontal.bmp	oval-vertical.bmp	oval-vertical.bmp
308.211689949	1.830686092000008	shape	0.603970050812	1.0	0.8	n/a	n/a	310.042376041	310.060618162	311.041469097	n/a	circle.bmp	oval-vertical.bmp	oval-vertical.bmp
311.194750071	1.846324920000029	shape	0.669131994247	1.0	0.8	n/a	n/a	313.041074991	313.05997014	314.040895939	n/a	oval-horizontal.bmp	oval-horizontal.bmp	oval-vertical.bmp
314.193178177	1.8467857840000192	shape	0.750581979752	1.0	0.8	n/a	n/a	316.039963961	316.058033943	317.039330006	n/a	oval-horizontal.bmp	oval-horizontal.bmp	circle.bmp
317.192965031	1.8459570399999727	shape	0.819509029388	1.0	0.8	n/a	n/a	319.038922071	319.05708909	320.038526058	n/a	circle.bmp	circle.bmp	oval-vertical.bmp
320.199664116	1.8384928699999816	shape	0.661242961884	1.0	0.8	n/a	n/a	322.038156986	322.055598974	323.03800106	n/a	oval-horizontal.bmp	circle.bmp	circle.bmp
326.136624098	1.9005188939999584	face	0.671283960342	0.0	0.8	323.161468983	326.037181139	328.037142992	328.054975986	329.035987139	n/a	17F_FE_O.jpg	18F_FE_O.jpg	18F_FE_O.jpg
329.254621983	1.7817890640000087	face	0.787207126617	1.0	0.8	n/a	n/a	331.036411047	331.05412817	332.035443068	n/a	42M_AN_O.jpg	43M_AN_O.jpg	43M_AN_O.jpg
332.238460064	1.796861887000034	face	0.866026878357	1.0	0.8	n/a	n/a	334.035321951	334.053182125	335.03413105	n/a	31M_FE_O.jpg	31M_FE_O.jpg	32M_FE_O.jpg
335.220318079	1.813695908	face	0.883635044098	1.0	0.8	n/a	n/a	337.034013987	337.051756144	338.033581018	n/a	FAZ_212.jpg	FFZ_236.jpg	FFZ_236.jpg
338.242455959	1.8068430430000149	face	0.795987129211	1.0	0.8	n/a	n/a	340.049299002	340.068223	341.049448967	n/a	06F_FE_O.jpg	06F_FE_O.jpg	08F_FE_O.jpg
341.227763176	1.8208198550000247	face	0.827407121658	1.0	0.8	n/a	n/a	343.048583031	343.066786051	344.047971964	n/a	MAZ_128.jpg	MAZ_128.jpg	MAX_39.jpg
347.097768068	1.9500839710000264	shape	0.654232025146	1.0	0.8	344.168662071	347.045003176	349.047852039	349.06556797	350.047144175	n/a	circle.bmp	oval-vertical.bmp	oval-vertical.bmp
350.217089176	1.8301467900000148	shape	0.85413479805	1.0	0.8	n/a	n/a	352.047235966	352.064959049	353.046117067	n/a	oval-horizontal.bmp	oval-horizontal.bmp	circle.bmp
353.200365067	1.845468997000012	shape	0.652060031891	1.0	0.8	n/a	n/a	355.045834064	355.064562082	356.045449972	n/a	oval-horizontal.bmp	oval-vertical.bmp	oval-vertical.bmp
356.235625029	1.8092389099999764	shape	0.633401155472	1.0	0.8	n/a	n/a	358.044863939	358.062819958	359.043457985	n/a	oval-horizontal.bmp	circle.bmp	circle.bmp
359.206274033	1.837587117999988	shape	0.928879976273	1.0	0.8	n/a	n/a	361.043861151	361.061592102	362.042904139	n/a	oval-horizontal.bmp	oval-horizontal.bmp	oval-vertical.bmp
362.204735994	1.8384840490000445	shape	0.860838890076	1.0	0.8	n/a	n/a	364.043220043	364.06105113	365.042412043	n/a	circle.bmp	circle.bmp	oval-vertical.bmp
368.125550032	1.916054010000039	face	0.917616128922	1.0	0.8	365.18219614	368.041722059	370.041604042	370.058805943	371.040509939	n/a	FFZ_18.jpg	FAZ_129.jpg	FAZ_129.jpg
371.261186123	1.779570817999968	face	1.27032089233	1.0	0.8	n/a	n/a	373.040756941	373.058956146	374.039749146	n/a	20M_FE_O.jpg	24M_FE_O.jpg	24M_FE_O.jpg
374.226216078	1.8133690359999832	face	0.916915893555	1.0	0.8	n/a	n/a	376.039585114	376.057183981	377.038542986	n/a	FAZ_23.jpg	FAX_25.jpg	FAX_25.jpg
377.241811991	1.7961189739999668	face	0.769294977188	1.0	0.8	n/a	n/a	379.037930965	379.056799173	380.037966013	n/a	33M_FE_O.jpg	33M_FE_O.jpg	35M_FE_O.jpg
380.32327199	1.7141401769999902	face	0.919329166412	1.0	0.8	n/a	n/a	382.037412167	382.054849148	383.037207127	n/a	01F_AN_O.jpg	01F_AN_O.jpg	02F_AN_O.jpg
383.215630054	1.8210639960000208	face	0.874915122986	1.0	0.8	n/a	n/a	385.03669405	385.054409027	386.03582716	394.433630943	MFZ_132.jpg	MFZ_132.jpg	MFZ_120.jpg
