onset	duration	trial_type	response_time	accuracy_binarized	tr_seconds	cueStartTime	cueEndTime	trialEndTime	fixStartTime	fixEndTime	runEndTime	stimLeft	stimTop	stimRight
11.0574040413	1.9689271450000003	shape	n/a	0.0	0.8	8.0220990181	11.0093920231	13.0263311863	13.0311341286	14.025603056	n/a	oval-horizontal.bmp	oval-horizontal.bmp	oval-vertical.bmp
14.1344511509	1.891433000600001	shape	1.0204552809376668	0.0	0.8	n/a	n/a	16.0258841515	16.0298631191	17.024780035	n/a	oval-horizontal.bmp	oval-vertical.bmp	oval-vertical.bmp
17.1242821217	1.9017770290000016	shape	0.661196947098	1.0	0.8	n/a	n/a	19.0260591507	19.0297682285	20.0256011486	n/a	circle.bmp	circle.bmp	oval-vertical.bmp
20.12464118	1.9006018639000004	shape	1.08609414101	1.0	0.8	n/a	n/a	22.0252430439	22.0287911892	23.0246992111	n/a	circle.bmp	oval-vertical.bmp	oval-vertical.bmp
23.1211202145	1.9039139747	shape	0.825788974762	1.0	0.8	n/a	n/a	25.0250341892	25.0287380219	26.0242221355	n/a	oval-horizontal.bmp	circle.bmp	circle.bmp
26.1234631538	1.9010639191000005	shape	0.779324054718	1.0	0.8	n/a	n/a	28.0245270729	28.0283811092	29.0245890617	n/a	oval-horizontal.bmp	oval-horizontal.bmp	circle.bmp
32.0837011337	1.941350936899994	face	0.86159992218	1.0	0.8	29.1025950909	32.0226080418	34.0250520706	34.0305840969	35.0239300728	n/a	FAZ_23.jpg	FAZ_23.jpg	FAX_43.jpg
35.1645581722	1.8592040538999937	face	0.78667807579	1.0	0.8	n/a	n/a	37.0237622261	37.0275790691	38.0228760242	n/a	26M_FE_O.jpg	26M_FE_O.jpg	27M_FE_O.BMP
38.141190052	1.8815939427000004	face	0.852633953094	1.0	0.8	n/a	n/a	40.0227839947	40.0268311501	41.0226831436	n/a	MFX_16.jpg	MFZ_50.jpg	MFZ_50.jpg
41.1755511761	1.847560882499998	face	1.08676886559	1.0	0.8	n/a	n/a	43.0231120586	43.0269021988	44.0221431255	n/a	09F_AN_O.jpg	09F_AN_O.jpg	10F_AN_O.jpg
44.1609091759	1.861874818799997	face	1.15449905396	1.0	0.8	n/a	n/a	46.0227839947	46.0264492035	47.0218510628	n/a	38M_AN_O.BMP	39M_AN_O.jpg	39M_AN_O.jpg
47.1422991753	1.8806190489999963	face	0.854870796204	1.0	0.8	n/a	n/a	49.0229182243	49.0267531872	50.0221090317	n/a	FFZ_102.jpg	FFX_130.jpg	FFX_130.jpg
53.0589520931	1.963270902700004	shape	1.00272583961	1.0	0.8	50.0966041088	53.0215280056	55.0222229958	55.026859045	56.021045208	n/a	oval-horizontal.bmp	oval-vertical.bmp	oval-vertical.bmp
56.122615099	1.8930261134999995	shape	0.804171085358	1.0	0.8	n/a	n/a	58.0156412125	58.0193459988	59.0150270462	n/a	circle.bmp	oval-vertical.bmp	oval-vertical.bmp
59.1129100323	1.9078960418000008	shape	1.40456295013	1.0	0.8	n/a	n/a	61.0208060741	61.0244650841	62.020149231	n/a	oval-horizontal.bmp	oval-horizontal.bmp	oval-vertical.bmp
62.1190230846	1.8962919712	shape	1.52073001862	1.0	0.8	n/a	n/a	64.0153150558	64.0195231438	65.0143210888	n/a	oval-horizontal.bmp	oval-horizontal.bmp	circle.bmp
65.112855196	1.9071018695999984	shape	1.87532711029	1.0	0.8	n/a	n/a	67.0199570656	67.0235660076	68.0196561813	n/a	circle.bmp	circle.bmp	oval-vertical.bmp
68.1210670471	1.8987109660999977	shape	0.955361127853	1.0	0.8	n/a	n/a	70.0197780132	70.0234780312	71.0191102028	n/a	oval-horizontal.bmp	circle.bmp	circle.bmp
74.108798027	1.9108171462999903	face	1.08917593956	1.0	0.8	71.0950109959	74.0192251205	76.0196151733	76.0244941711	77.0185091496	n/a	03F_FE_O.jpg	05F_FE_O.jpg	05F_FE_O.jpg
77.1460151672	1.8736679553999949	face	1.82232117653	1.0	0.8	n/a	n/a	79.0196831226	79.0233311653	80.0182900429	n/a	FAZ_32.jpg	FAZ_32.jpg	FAX_45.jpg
80.1390712261	1.879565000599996	face	1.44097089767	1.0	0.8	n/a	n/a	82.0186362267	82.0223281384	83.0180501938	n/a	MAZ_128.jpg	MAZ_101.jpg	MAZ_101.jpg
83.1630861759	1.8556678294999929	face	1.38937807083	1.0	0.8	n/a	n/a	85.0187540054	85.0225861073	86.0167682171	n/a	11F_AN_O.jpg	11F_AN_O.jpg	12F_AN_O.jpg
86.1616561413	1.8560030459999977	face	1.22055912018	1.0	0.8	n/a	n/a	88.0176591873	88.0213620663	89.0177562237	n/a	26M_FE_O.jpg	33M_FE_O.jpg	33M_FE_O.jpg
89.139783144	1.8777790070000009	face	1.15679192543	1.0	0.8	n/a	n/a	91.017562151	91.0212030411	92.0168380737	n/a	MFZ_132.jpg	MFZ_132.jpg	MFZ_120.jpg
95.0543971062	1.962933063500003	shape	1.18866682053	1.0	0.8	92.0943322182	95.0172531605	97.0173301697	97.022080183	98.0162742138	n/a	circle.bmp	oval-vertical.bmp	oval-vertical.bmp
98.1181640625	1.8977861405000027	shape	1.13907694817	1.0	0.8	n/a	n/a	100.015950203	100.019898176	101.015754223	n/a	oval-horizontal.bmp	oval-horizontal.bmp	circle.bmp
101.116955042	1.8990430829999951	shape	1.07071495056	1.0	0.8	n/a	n/a	103.015998125	103.019579172	104.015408039	n/a	oval-horizontal.bmp	oval-vertical.bmp	oval-vertical.bmp
104.116664171	1.898988962000004	shape	n/a	0.0	0.8	n/a	n/a	106.015653133	106.019335032	107.015501022	n/a	oval-horizontal.bmp	circle.bmp	circle.bmp
107.11661911	1.8990540509999927	shape	1.05372691154	1.0	0.8	n/a	n/a	109.015673161	109.019288063	110.014932156	n/a	oval-horizontal.bmp	oval-horizontal.bmp	oval-vertical.bmp
110.117855072	1.897001982000006	shape	0.853546857834	1.0	0.8	n/a	n/a	112.014857054	112.019182205	113.014111042	n/a	circle.bmp	circle.bmp	oval-vertical.bmp
116.067079067	1.9479019640000104	face	1.63688087463	1.0	0.8	113.096432209	116.014008999	118.014981031	118.019497156	119.014077187	n/a	FAZ_23.jpg	FAZ_23.jpg	FAX_43.jpg
119.144594193	1.8856959339999968	face	1.03310418129	1.0	0.8	n/a	n/a	121.030290127	121.034060001	122.013552189	n/a	26M_FE_O.jpg	26M_FE_O.jpg	27M_FE_O.BMP
122.136534214	1.893537998	face	1.43688511848	1.0	0.8	n/a	n/a	124.030072212	124.034117222	125.029414177	n/a	MFZ_50.jpg	MFZ_50.jpg	MFX_16.jpg
125.180303097	1.8497519489999945	face	n/a	0.0	0.8	n/a	n/a	127.030055046	127.03362608	128.029359102	n/a	10F_AN_O.jpg	09F_AN_O.jpg	09F_AN_O.jpg
128.161122084	1.868829011999992	face	0.653463840485	1.0	0.8	n/a	n/a	130.029951096	130.033623219	131.029226065	n/a	38M_AN_O.BMP	39M_AN_O.jpg	39M_AN_O.jpg
131.148239136	1.8814039229999933	face	1.42091393471	1.0	0.8	n/a	n/a	133.029643059	133.033390999	134.028897047	n/a	FFZ_102.jpg	FFX_130.jpg	FFX_130.jpg
137.066415071	1.962404012999997	shape	n/a	0.0	0.8	134.11114502	137.028739214	139.028819084	139.033444166	140.028274059	n/a	oval-horizontal.bmp	oval-horizontal.bmp	oval-vertical.bmp
140.131372213	1.897035838000022	shape	0.603171110153	1.0	0.8	n/a	n/a	142.028408051	142.032083035	143.028284073	n/a	oval-horizontal.bmp	oval-vertical.bmp	oval-vertical.bmp
143.136992216	1.891860961999981	shape	0.800426959991	1.0	0.8	n/a	n/a	145.028853178	145.032811165	146.027331114	n/a	circle.bmp	circle.bmp	oval-vertical.bmp
146.13232708	1.8948900700000024	shape	0.703571081161	1.0	0.8	n/a	n/a	148.02721715	148.031546116	149.02722621	n/a	circle.bmp	oval-vertical.bmp	oval-vertical.bmp
149.133247137	1.8944768909999825	shape	0.716222047806	1.0	0.8	n/a	n/a	151.027724028	151.031352997	152.026481152	n/a	oval-horizontal.bmp	circle.bmp	circle.bmp
152.13008213	1.897217988999984	shape	0.803730010986	1.0	0.8	n/a	n/a	154.027300119	154.030959129	155.027033091	n/a	oval-horizontal.bmp	oval-horizontal.bmp	circle.bmp
158.109405041	1.91662216200001	face	n/a	0.0	0.8	155.108784199	158.02664423	160.026027203	160.031520128	161.025802135	n/a	20M_FE_O.jpg	21M_FE_O.jpg	21M_FE_O.jpg
161.179805994	1.8464190960000053	face	0.919669866562	1.0	0.8	n/a	n/a	163.02622509	163.029872179	164.025503159	n/a	01F_AN_O.jpg	07F_AN_O.jpg	07F_AN_O.jpg
164.150834084	1.8751039500000104	face	0.967591047287	1.0	0.8	n/a	n/a	166.025938034	166.029621124	167.025126219	n/a	FFX_139.jpg	FFZ_102.jpg	FFZ_102.jpg
167.173686028	1.851850032000016	face	1.62149691582	1.0	0.8	n/a	n/a	169.02553606	169.029163122	170.024762154	n/a	23M_AN_O.jpg	23M_AN_O.jpg	22M_AN_O.jpg
170.154016018	1.8705840110000047	face	n/a	0.0	0.8	n/a	n/a	172.024600029	172.028327227	173.024414062	n/a	MAZ_146.jpg	MAZ_146.jpg	MAX_233.jpg
173.174141169	1.8503489489999936	face	n/a	0.0	0.8	n/a	n/a	175.024490118	175.028208017	176.02326417	n/a	15F_FE_O.jpg	15F_FE_O.jpg	16F_FE_O.jpg
179.061325073	1.963367938999994	shape	1.66818499565	1.0	0.8	176.111136198	179.024227142	181.024693012	181.029313087	182.023570061	n/a	oval-horizontal.bmp	oval-vertical.bmp	oval-vertical.bmp
182.131057024	1.892420052999995	shape	n/a	0.0	0.8	n/a	n/a	184.023477077	184.02751708	185.02403903	n/a	circle.bmp	oval-vertical.bmp	oval-vertical.bmp
185.135852098	1.8874709610000195	shape	1.06388807297	1.0	0.8	n/a	n/a	187.023323059	187.027296066	188.021940231	n/a	oval-horizontal.bmp	oval-horizontal.bmp	oval-vertical.bmp
188.132295132	1.8909139630000027	shape	n/a	0.0	0.8	n/a	n/a	190.023209095	190.026916027	191.022464037	n/a	oval-horizontal.bmp	oval-horizontal.bmp	circle.bmp
191.130435228	1.8921799659999865	shape	0.787853002548	1.0	0.8	n/a	n/a	193.022615194	193.026291132	194.022069216	n/a	circle.bmp	circle.bmp	oval-vertical.bmp
194.131880045	1.890628098999997	shape	n/a	0.0	0.8	n/a	n/a	196.022508144	196.026666164	197.021664143	n/a	oval-horizontal.bmp	circle.bmp	circle.bmp
200.081592083	1.9405329230000063	face	1.54461216927	1.0	0.8	197.106194019	200.022124052	202.022125006	202.027968168	203.020880222	n/a	FFX_54.jpg	FFX_54.jpg	FAX_51.jpg
203.172048092	1.8496990200000027	face	1.3690931797	1.0	0.8	n/a	n/a	205.021747112	205.025276184	206.021369219	n/a	40M_FE_O.BMP	41M_FE_O.jpg	41M_FE_O.jpg
206.165988207	1.855139971	face	0.644721031189	1.0	0.8	n/a	n/a	208.021128178	208.025486231	209.020887136	n/a	29M_AN_O.jpg	29M_AN_O.jpg	28M_AN_O.jpg
209.149002075	1.872401953000008	face	0.927525043488	1.0	0.8	n/a	n/a	211.021404028	211.025105	212.02029705	n/a	FFZ_18.jpg	FFZ_29.jpg	FFZ_29.jpg
212.175173998	1.8460161680000056	face	1.15340614319	1.0	0.8	n/a	n/a	214.021190166	214.024890184	215.019399166	n/a	19F_AN_O.jpg	19F_AN_O.jpg	09F_AN_O.jpg
215.147802114	1.8723828800000035	face	0.793148994446	1.0	0.8	n/a	n/a	217.020184994	217.023822069	218.019452095	n/a	MFZ_132.jpg	MFZ_7.jpg	MFZ_7.jpg
221.056993008	1.962861060999984	shape	0.936320066452	1.0	0.8	218.105386019	221.019827127	223.019854069	223.024376154	224.01909709	n/a	circle.bmp	oval-vertical.bmp	oval-vertical.bmp
224.130120039	1.8893570900000043	shape	1.72688293457	1.0	0.8	n/a	n/a	226.019477129	226.023138046	227.018549204	n/a	oval-horizontal.bmp	oval-horizontal.bmp	circle.bmp
227.127746105	1.8912091260000068	shape	1.80875515938	1.0	0.8	n/a	n/a	229.018955231	229.022635221	230.018513203	n/a	oval-horizontal.bmp	oval-vertical.bmp	oval-vertical.bmp
230.133579016	1.8849639889999992	shape	n/a	0.0	0.8	n/a	n/a	232.018543005	232.022644043	233.01763916	n/a	oval-horizontal.bmp	circle.bmp	circle.bmp
233.129743099	1.8880999090000048	shape	n/a	0.0	0.8	n/a	n/a	235.017843008	235.021514177	236.017102003	n/a	oval-horizontal.bmp	oval-horizontal.bmp	oval-vertical.bmp
236.127733231	1.8895609369999988	shape	0.908346176147	1.0	0.8	n/a	n/a	238.017294168	238.020965099	239.017123222	n/a	circle.bmp	circle.bmp	oval-vertical.bmp
242.097487211	1.9196999080000128	face	1.50667190552	0.0	0.8	239.10484004	242.016621113	244.017187119	244.021815062	245.01641202	n/a	20M_FE_O.jpg	21M_FE_O.jpg	21M_FE_O.jpg
245.170659065	1.846226931000018	face	0.924038887024	1.0	0.8	n/a	n/a	247.016885996	247.020499229	248.016094208	n/a	07F_AN_O.jpg	07F_AN_O.jpg	01F_AN_O.jpg
248.145269156	1.8714058389999764	face	0.754627943039	1.0	0.8	n/a	n/a	250.016674995	250.020135164	251.016275167	n/a	FFZ_102.jpg	FFZ_102.jpg	FFX_139.jpg
251.164835215	1.851270913999997	face	0.839635848999	1.0	0.8	n/a	n/a	253.016106129	253.019793034	254.015588045	n/a	22M_AN_O.jpg	23M_AN_O.jpg	23M_AN_O.jpg
254.142352104	1.8731210230000104	face	0.94019317627	1.0	0.8	n/a	n/a	256.015473127	256.019574165	257.013740063	n/a	MAX_233.jpg	MAZ_146.jpg	MAZ_146.jpg
257.164900064	1.850940943000012	face	1.48895788193	1.0	0.8	n/a	n/a	259.015841007	259.019482136	260.014824152	n/a	15F_FE_O.jpg	15F_FE_O.jpg	16F_FE_O.jpg
263.052350998	1.962400198000012	shape	0.940186023712	1.0	0.8	260.103689194	263.014690161	265.014751196	265.019347191	266.014232159	n/a	oval-horizontal.bmp	oval-horizontal.bmp	oval-vertical.bmp
266.128345013	1.886186123000016	shape	1.62187600136	1.0	0.8	n/a	n/a	268.014531136	268.018653154	269.014056206	n/a	oval-horizontal.bmp	oval-vertical.bmp	oval-vertical.bmp
269.125411034	1.8892099849999795	shape	1.1880979538	1.0	0.8	n/a	n/a	271.014621019	271.018385172	272.013486147	n/a	circle.bmp	circle.bmp	oval-vertical.bmp
272.125602007	1.904992102999984	shape	1.67242908478	1.0	0.8	n/a	n/a	274.03059411	274.034271002	275.013568163	n/a	circle.bmp	oval-vertical.bmp	oval-vertical.bmp
275.127904177	1.9019968509999785	shape	1.4718580246	1.0	0.8	n/a	n/a	277.029901028	277.033845186	278.029341221	n/a	oval-horizontal.bmp	circle.bmp	circle.bmp
278.141879082	1.887485980999997	shape	n/a	0.0	0.8	n/a	n/a	280.029365063	280.033453226	281.029367208	n/a	oval-horizontal.bmp	oval-horizontal.bmp	circle.bmp
284.089238167	1.9402718540000023	face	n/a	0.0	0.8	281.119421005	284.029084206	286.029510021	286.034153223	287.028646231	n/a	FFZ_18.jpg	FAZ_129.jpg	FAZ_129.jpg
287.192056179	1.837342024000009	face	1.05379486084	1.0	0.8	n/a	n/a	289.029398203	289.033394098	290.0285182	n/a	20M_FE_O.jpg	24M_FE_O.jpg	24M_FE_O.jpg
290.161431074	1.8670001030000087	face	0.68705701828	1.0	0.8	n/a	n/a	292.028431177	292.032435179	293.027096033	n/a	FAZ_23.jpg	FAX_25.jpg	FAX_25.jpg
293.189215183	1.8386719229999928	face	0.769768953323	1.0	0.8	n/a	n/a	295.027887106	295.031333208	296.027133226	n/a	33M_FE_O.jpg	33M_FE_O.jpg	35M_FE_O.jpg
296.189821005	1.8381171230000173	face	0.768779993057	1.0	0.8	n/a	n/a	298.027938128	298.03117609	299.02721715	n/a	01F_AN_O.jpg	01F_AN_O.jpg	02F_AN_O.jpg
299.164937019	1.8627781870000035	face	1.01959896088	1.0	0.8	n/a	n/a	301.027715206	301.031414032	302.026991129	n/a	MFZ_132.jpg	MFZ_132.jpg	MFZ_120.jpg
305.066646099	1.960217952999983	shape	0.88649892807	1.0	0.8	302.118257999	305.027029037	307.026864052	307.031329155	308.025810003	n/a	oval-horizontal.bmp	oval-vertical.bmp	oval-vertical.bmp
308.139780045	1.8866441249999752	shape	1.33757901192	1.0	0.8	n/a	n/a	310.02642417	310.030017138	311.026158094	n/a	circle.bmp	oval-vertical.bmp	oval-vertical.bmp
311.142667055	1.8833520410000235	shape	0.919458866119	1.0	0.8	n/a	n/a	313.026019096	313.029640198	314.02550602	n/a	oval-horizontal.bmp	oval-horizontal.bmp	oval-vertical.bmp
314.140938044	1.884744167000008	shape	1.2708439827	1.0	0.8	n/a	n/a	316.025682211	316.029450178	317.024780035	n/a	oval-horizontal.bmp	oval-horizontal.bmp	circle.bmp
317.139928102	1.8858189590000047	shape	0.769321918488	1.0	0.8	n/a	n/a	319.025747061	319.029292107	320.024582148	n/a	circle.bmp	circle.bmp	oval-vertical.bmp
320.139050007	1.885897159000024	shape	n/a	0.0	0.8	n/a	n/a	322.024947166	322.028643131	323.024453163	n/a	oval-horizontal.bmp	circle.bmp	circle.bmp
326.10612607	1.91785192499998	face	n/a	0.0	0.8	323.117150068	326.024234056	328.023977995	328.029069185	329.023838043	n/a	17F_FE_O.jpg	18F_FE_O.jpg	18F_FE_O.jpg
329.181005001	1.8436481949999568	face	1.62019491196	1.0	0.8	n/a	n/a	331.024653196	331.028541088	332.023340225	n/a	42M_AN_O.jpg	43M_AN_O.jpg	43M_AN_O.jpg
332.18238616	1.841734885999984	face	n/a	0.0	0.8	n/a	n/a	334.024121046	334.027777195	335.023343086	n/a	31M_FE_O.jpg	31M_FE_O.jpg	32M_FE_O.jpg
335.160848141	1.862664938000023	face	1.3031578064	1.0	0.8	n/a	n/a	337.023513079	337.027253151	338.023027182	n/a	FAZ_212.jpg	FFZ_236.jpg	FFZ_236.jpg
338.191399097	1.831315041000039	face	n/a	0.0	0.8	n/a	n/a	340.022714138	340.026790142	341.022338152	n/a	06F_FE_O.jpg	06F_FE_O.jpg	08F_FE_O.jpg
341.154881001	1.8678932189999955	face	1.61986303329	0.0	0.8	n/a	n/a	343.02277422	343.026492119	344.021535158	n/a	MAZ_128.jpg	MAZ_128.jpg	MAX_39.jpg
347.059303045	1.9630901820000304	shape	0.669262886047	1.0	0.8	344.11985302	347.02165103	349.022393227	349.026917219	350.02137804	n/a	circle.bmp	oval-vertical.bmp	oval-vertical.bmp
350.13758111	1.8842370510000137	shape	1.18549180031	1.0	0.8	n/a	n/a	352.021818161	352.025858164	353.021036148	n/a	oval-horizontal.bmp	oval-horizontal.bmp	circle.bmp
353.139443159	1.8824269770000228	shape	1.45393300056	1.0	0.8	n/a	n/a	355.021870136	355.025495052	356.020345211	n/a	oval-horizontal.bmp	oval-vertical.bmp	oval-vertical.bmp
356.144597054	1.876306057000022	shape	1.28628206253	1.0	0.8	n/a	n/a	358.020903111	358.024892092	359.020641088	n/a	oval-horizontal.bmp	circle.bmp	circle.bmp
359.137405157	1.883530855000004	shape	1.05148506165	1.0	0.8	n/a	n/a	361.020936012	361.024792194	362.019868135	n/a	oval-horizontal.bmp	oval-horizontal.bmp	oval-vertical.bmp
362.135739088	1.884861946000001	shape	n/a	0.0	0.8	n/a	n/a	364.020601034	364.025109053	365.019736052	n/a	circle.bmp	circle.bmp	oval-vertical.bmp
368.07623601	1.9437031740000064	face	1.09999418259	1.0	0.8	365.114952087	368.018831015	370.019939184	370.024745226	371.019206047	n/a	FFZ_18.jpg	FAZ_129.jpg	FAZ_129.jpg
371.176950216	1.8424777989999936	face	0.728723049164	1.0	0.8	n/a	n/a	373.019428015	373.023435116	374.01850605	n/a	20M_FE_O.jpg	24M_FE_O.jpg	24M_FE_O.jpg
374.153510094	1.865570068000011	face	1.65277194977	1.0	0.8	n/a	n/a	376.019080162	376.023105145	377.018260002	n/a	FAZ_23.jpg	FAX_25.jpg	FAX_25.jpg
377.17624402	1.8426251419999744	face	n/a	0.0	0.8	n/a	n/a	379.018869162	379.022591114	380.017677069	n/a	33M_FE_O.jpg	33M_FE_O.jpg	35M_FE_O.jpg
380.179503202	1.838892937000025	face	n/a	0.0	0.8	n/a	n/a	382.018396139	382.022079229	383.017680168	n/a	01F_AN_O.jpg	01F_AN_O.jpg	02F_AN_O.jpg
383.154725075	1.8629510399999845	face	1.03680992126	1.0	0.8	n/a	n/a	385.017676115	385.023819208	386.018047094	394.416269064	MFZ_132.jpg	MFZ_132.jpg	MFZ_120.jpg
