onset	duration	trial_type	response_time	accuracy_binarized	tr_seconds	cueStartTime	cueEndTime	trialEndTime	fixStartTime	fixEndTime	runEndTime	stimLeft	stimTop	stimRight
11.0782558918	1.9660069942000007	shape	0.722114086151	1.0	0.8	8.0381770134	11.0284729004	13.044262886	13.0603599548	14.0436840057	n/a	oval-horizontal.bmp	oval-horizontal.bmp	oval-vertical.bmp
14.1616330147	1.8818268776	shape	0.738122940063	1.0	0.8	n/a	n/a	16.0434598923	16.0595879555	17.0423460007	n/a	oval-horizontal.bmp	oval-vertical.bmp	oval-vertical.bmp
17.1427509785	1.8992810248999987	shape	0.666687965393	1.0	0.8	n/a	n/a	19.0420320034	19.0586669445	20.0411789417	n/a	circle.bmp	circle.bmp	oval-vertical.bmp
20.1412189007	1.900222063000001	shape	0.679011821747	1.0	0.8	n/a	n/a	22.0414409637	22.0579218864	23.0405330658	n/a	circle.bmp	oval-vertical.bmp	oval-vertical.bmp
23.1500749588	1.890457153299998	shape	0.628371953964	1.0	0.8	n/a	n/a	25.0405321121	25.0573248863	26.0395450592	n/a	oval-horizontal.bmp	circle.bmp	circle.bmp
26.1513650417	1.883533954699999	shape	0.588506221771	1.0	0.8	n/a	n/a	28.0348989964	28.0517270565	29.0352780819	n/a	oval-horizontal.bmp	oval-horizontal.bmp	circle.bmp
32.1053481102	1.9335799217000016	face	0.784863948822	1.0	0.8	29.1081650257	32.0382931232	34.0389280319	34.0544669628	35.0377459526	n/a	FAZ_23.jpg	FAZ_23.jpg	FAX_43.jpg
35.1723070145	1.8651840686000007	face	0.769836902618	1.0	0.8	n/a	n/a	37.0374910831	37.0538809299	38.0360600948	n/a	26M_FE_O.jpg	26M_FE_O.jpg	27M_FE_O.BMP
38.1708331108	1.8653907776000047	face	0.785547971725	1.0	0.8	n/a	n/a	40.0362238884	40.0526530743	41.0353319645	n/a	MFX_16.jpg	MFZ_50.jpg	MFZ_50.jpg
41.1855909824	1.8499650955999984	face	0.801300048828	1.0	0.8	n/a	n/a	43.035556078	43.0520420074	44.0348119736	n/a	09F_AN_O.jpg	09F_AN_O.jpg	10F_AN_O.jpg
44.1769449711	1.857770919800004	face	0.834619998932	1.0	0.8	n/a	n/a	46.0347158909	46.0509688854	47.0337769985	n/a	38M_AN_O.BMP	39M_AN_O.jpg	39M_AN_O.jpg
47.1624319553	1.8837511540000025	face	1.15482401848	1.0	0.8	n/a	n/a	49.0461831093	49.0628540516	50.0464971066	n/a	FFZ_102.jpg	FFX_130.jpg	FFX_130.jpg
53.0831260681	1.949820041700001	shape	0.804444074631	1.0	0.8	50.1220679283	53.0328299999	55.0329461098	55.0490820408	56.0318169594	n/a	oval-horizontal.bmp	oval-vertical.bmp	oval-vertical.bmp
56.1492009163	1.8990430831999987	shape	0.732221126556	1.0	0.8	n/a	n/a	58.0482439995	58.0647909641	59.0472459793	n/a	circle.bmp	oval-vertical.bmp	oval-vertical.bmp
59.1651790142	1.8820428848000008	shape	0.833172082901	1.0	0.8	n/a	n/a	61.047221899	61.0634589195	62.0462698936	n/a	oval-horizontal.bmp	oval-horizontal.bmp	oval-vertical.bmp
62.1536860466	1.8923950195000003	shape	0.727440834045	1.0	0.8	n/a	n/a	64.0460810661	64.0626580715	65.0454239845	n/a	oval-horizontal.bmp	oval-horizontal.bmp	circle.bmp
65.15467906	1.890713930099992	shape	0.642549037933	1.0	0.8	n/a	n/a	67.0453929901	67.061852932	68.0445709229	n/a	circle.bmp	circle.bmp	oval-vertical.bmp
68.1566569805	1.883575916300004	shape	0.654904127121	1.0	0.8	n/a	n/a	70.0402328968	70.0570120811	71.0403389931	n/a	oval-horizontal.bmp	circle.bmp	circle.bmp
74.1436641216	1.8999037743	face	1.17109394073	1.0	0.8	71.1162960529	74.0434319973	76.0435678959	76.0599739552	77.0426208973	n/a	03F_FE_O.jpg	05F_FE_O.jpg	05F_FE_O.jpg
77.1768009663	1.865673065100012	face	0.969728946686	1.0	0.8	n/a	n/a	79.0424740314	79.0593540668	80.0412840843	n/a	FAZ_32.jpg	FAZ_32.jpg	FAX_45.jpg
80.1623170376	1.8781418800000007	face	1.11660695076	1.0	0.8	n/a	n/a	82.0404589176	82.0578420162	83.0400669575	n/a	MAZ_128.jpg	MAZ_101.jpg	MAZ_101.jpg
83.2088620663	1.8314080237999943	face	0.987031936646	1.0	0.8	n/a	n/a	85.0402700901	85.0568950176	86.0387461185	n/a	11F_AN_O.jpg	11F_AN_O.jpg	12F_AN_O.jpg
86.1894528866	1.8491652012000088	face	0.936472177505	1.0	0.8	n/a	n/a	88.0386180878	88.0563030243	89.038820982	n/a	26M_FE_O.jpg	33M_FE_O.jpg	33M_FE_O.jpg
89.1725559235	1.8618950843000024	face	0.98632311821	1.0	0.8	n/a	n/a	91.0344510078	91.0516691208	92.0350821018	n/a	MFZ_132.jpg	MFZ_132.jpg	MFZ_120.jpg
95.0876500607	1.950263023299996	shape	0.854134082794	1.0	0.8	92.1107308865	95.0372600555	97.037913084	97.0539450645	98.0369288921	n/a	circle.bmp	oval-vertical.bmp	oval-vertical.bmp
98.1723511219	1.8642737861	shape	0.665556192398	1.0	0.8	n/a	n/a	100.036624908	100.052864075	101.034814119	n/a	oval-horizontal.bmp	oval-horizontal.bmp	circle.bmp
101.153531075	1.8819928159999928	shape	0.867341995239	1.0	0.8	n/a	n/a	103.035523891	103.051916122	104.034522057	n/a	oval-horizontal.bmp	oval-vertical.bmp	oval-vertical.bmp
104.15238595	1.882271051000004	shape	0.737880945206	1.0	0.8	n/a	n/a	106.034657001	106.050882101	107.033736944	n/a	oval-horizontal.bmp	circle.bmp	circle.bmp
107.151828051	1.8819210529999992	shape	1.06054210663	1.0	0.8	n/a	n/a	109.033749104	109.050029993	110.032973051	n/a	oval-horizontal.bmp	oval-horizontal.bmp	oval-vertical.bmp
110.144668102	1.8883929260000087	shape	0.625011920929	1.0	0.8	n/a	n/a	112.033061028	112.049475908	113.045239925	n/a	circle.bmp	circle.bmp	oval-vertical.bmp
116.099042892	1.933072091	face	0.837027072906	1.0	0.8	113.1204319	116.031883001	118.032114983	118.048069954	119.047313929	n/a	FAZ_23.jpg	FAZ_23.jpg	FAX_43.jpg
119.200618029	1.8468890190000025	face	0.899209976196	1.0	0.8	n/a	n/a	121.047507048	121.063638926	122.046333075	n/a	26M_FE_O.jpg	26M_FE_O.jpg	27M_FE_O.BMP
122.180969954	1.865298985999999	face	0.803779125214	1.0	0.8	n/a	n/a	124.04626894	124.062624931	125.045109987	n/a	MFZ_50.jpg	MFZ_50.jpg	MFX_16.jpg
125.203726053	1.8417890070000027	face	0.897063970566	1.0	0.8	n/a	n/a	127.04551506	127.061820984	128.044495106	n/a	10F_AN_O.jpg	09F_AN_O.jpg	09F_AN_O.jpg
128.188368082	1.856231928	face	0.944132089615	1.0	0.8	n/a	n/a	130.04460001	130.061167955	131.044029951	n/a	38M_AN_O.BMP	39M_AN_O.jpg	39M_AN_O.jpg
131.190432072	1.8501799100000085	face	1.07183504105	1.0	0.8	n/a	n/a	133.040611982	133.056339979	134.040100098	n/a	FFZ_102.jpg	FFX_130.jpg	FFX_130.jpg
137.093427896	1.9493360519999785	shape	0.904466867447	1.0	0.8	134.1204319	137.042401075	139.042763948	139.059175968	140.041749001	n/a	oval-horizontal.bmp	oval-horizontal.bmp	oval-vertical.bmp
140.160393953	1.8811230659999865	shape	0.670378923416	1.0	0.8	n/a	n/a	142.041517019	142.057941914	143.040410042	n/a	oval-horizontal.bmp	oval-vertical.bmp	oval-vertical.bmp
143.157893896	1.882616043000013	shape	0.653753995895	1.0	0.8	n/a	n/a	145.040509939	145.056849957	146.039583921	n/a	circle.bmp	circle.bmp	oval-vertical.bmp
146.157618046	1.8818540569999984	shape	0.76950097084	1.0	0.8	n/a	n/a	148.039472103	148.05608201	149.038774967	n/a	circle.bmp	oval-vertical.bmp	oval-vertical.bmp
149.148998022	1.889939069999997	shape	0.860064029694	1.0	0.8	n/a	n/a	151.038937092	151.05528903	152.038042068	n/a	oval-horizontal.bmp	circle.bmp	circle.bmp
152.154864073	1.8794610500000035	shape	0.769984960556	1.0	0.8	n/a	n/a	154.034325123	154.051000118	155.034544945	n/a	oval-horizontal.bmp	oval-horizontal.bmp	circle.bmp
158.136840105	1.900184870000004	face	1.20341992378	1.0	0.8	155.117858887	158.03668499	160.037024975	160.053091049	161.03578496	n/a	20M_FE_O.jpg	21M_FE_O.jpg	21M_FE_O.jpg
161.203830004	1.831871032000009	face	0.988345146179	1.0	0.8	n/a	n/a	163.035701036	163.052155972	164.034929991	n/a	01F_AN_O.jpg	07F_AN_O.jpg	07F_AN_O.jpg
164.173832893	1.8606340890000013	face	1.01458883286	1.0	0.8	n/a	n/a	166.034466982	166.051080942	167.033693075	n/a	FFX_139.jpg	FFZ_102.jpg	FFZ_102.jpg
167.191874027	1.8417129519999944	face	1.05959510803	1.0	0.8	n/a	n/a	169.033586979	169.049803972	170.032924891	n/a	23M_AN_O.jpg	23M_AN_O.jpg	22M_AN_O.jpg
170.166481972	1.8663010589999944	face	0.86066198349	1.0	0.8	n/a	n/a	172.032783031	172.049706936	173.031703949	n/a	MAZ_146.jpg	MAZ_146.jpg	MAX_233.jpg
173.195447922	1.8501040929999988	face	1.00093412399	1.0	0.8	n/a	n/a	175.045552015	175.062134027	176.045670986	n/a	15F_FE_O.jpg	15F_FE_O.jpg	16F_FE_O.jpg
179.082582951	1.9495010370000043	shape	0.887248039246	1.0	0.8	176.127866983	179.031039953	181.032083988	181.04739809	182.046471119	n/a	oval-horizontal.bmp	oval-vertical.bmp	oval-vertical.bmp
182.164798021	1.8815469740000024	shape	1.00274801254	1.0	0.8	n/a	n/a	184.046344995	184.062387943	185.045391083	n/a	circle.bmp	oval-vertical.bmp	oval-vertical.bmp
185.163492918	1.8821311000000087	shape	0.837287902832	1.0	0.8	n/a	n/a	187.045624018	187.061827898	188.044373989	n/a	oval-horizontal.bmp	oval-horizontal.bmp	oval-vertical.bmp
188.162625074	1.8819808959999875	shape	0.762042045593	1.0	0.8	n/a	n/a	190.04460597	190.061080933	191.043704033	n/a	oval-horizontal.bmp	oval-horizontal.bmp	circle.bmp
191.160940886	1.882939100000016	shape	0.711055994034	1.0	0.8	n/a	n/a	193.043879986	193.060388088	194.038598061	n/a	circle.bmp	circle.bmp	oval-vertical.bmp
194.160190105	1.8791928299999936	shape	0.687882184982	1.0	0.8	n/a	n/a	196.039382935	196.055725098	197.042382956	n/a	oval-horizontal.bmp	circle.bmp	circle.bmp
200.109014988	1.9326579569999751	face	1.1503059864	1.0	0.8	197.129486084	200.041606903	202.041672945	202.058042049	203.04083395	n/a	FFX_54.jpg	FFX_54.jpg	FAX_51.jpg
203.192656994	1.8482999800000075	face	0.952347040176	1.0	0.8	n/a	n/a	205.040956974	205.057085991	206.039586067	n/a	40M_FE_O.BMP	41M_FE_O.jpg	41M_FE_O.jpg
206.207544088	1.8318710329999988	face	1.1197078228	1.0	0.8	n/a	n/a	208.039415121	208.055948973	209.038717985	n/a	29M_AN_O.jpg	29M_AN_O.jpg	28M_AN_O.jpg
209.172709942	1.8662199970000013	face	0.99565911293	1.0	0.8	n/a	n/a	211.038929939	211.05519104	212.038074017	n/a	FFZ_18.jpg	FFZ_29.jpg	FFZ_29.jpg
212.205297947	1.8327491280000168	face	1.21057105064	1.0	0.8	n/a	n/a	214.038047075	214.054361105	215.032118082	n/a	19F_AN_O.jpg	19F_AN_O.jpg	09F_AN_O.jpg
215.16646409	1.86840295799999	face	1.00070905685	1.0	0.8	n/a	n/a	217.034867048	217.051184893	218.036395073	n/a	MFZ_132.jpg	MFZ_7.jpg	MFZ_7.jpg
221.087788105	1.9484529500000176	shape	0.653995037079	1.0	0.8	218.123090029	221.035902023	223.036241055	223.052792072	224.035131931	n/a	circle.bmp	oval-vertical.bmp	oval-vertical.bmp
224.151977062	1.882763863000008	shape	0.753771066666	1.0	0.8	n/a	n/a	226.034740925	226.051069021	227.033786058	n/a	oval-horizontal.bmp	oval-horizontal.bmp	circle.bmp
227.151645899	1.8825011250000043	shape	0.817680120468	1.0	0.8	n/a	n/a	229.034147024	229.050501108	230.032896996	n/a	oval-horizontal.bmp	oval-vertical.bmp	oval-vertical.bmp
230.158797026	1.87432789799999	shape	0.775824069977	1.0	0.8	n/a	n/a	232.033124924	232.048701048	233.032136917	n/a	oval-horizontal.bmp	circle.bmp	circle.bmp
233.149564028	1.8826980590000064	shape	0.638112068176	1.0	0.8	n/a	n/a	235.032262087	235.048415899	236.044178009	n/a	oval-horizontal.bmp	oval-horizontal.bmp	oval-vertical.bmp
236.165673971	1.8795681	shape	0.737223863602	1.0	0.8	n/a	n/a	238.045242071	238.061896086	239.030724049	n/a	circle.bmp	circle.bmp	oval-vertical.bmp
242.130810976	1.9161241049999944	face	1.4536151886	1.0	0.8	239.115837097	242.046842098	244.046935081	244.063134909	245.045598984	n/a	20M_FE_O.jpg	21M_FE_O.jpg	21M_FE_O.jpg
245.213304043	1.8320720190000088	face	0.904663801193	1.0	0.8	n/a	n/a	247.045376062	247.061121941	248.044593096	n/a	07F_AN_O.jpg	07F_AN_O.jpg	01F_AN_O.jpg
248.183331013	1.861247062000018	face	0.981366872787	1.0	0.8	n/a	n/a	250.044578075	250.060992956	251.043248892	n/a	FFZ_102.jpg	FFZ_102.jpg	FFX_139.jpg
251.214425087	1.829537868000017	face	0.870513916016	1.0	0.8	n/a	n/a	253.043962955	253.060250998	254.042898893	n/a	22M_AN_O.jpg	23M_AN_O.jpg	23M_AN_O.jpg
254.188065052	1.854779005000012	face	0.809422969818	1.0	0.8	n/a	n/a	256.042844057	256.059382915	257.042114019	n/a	MAX_233.jpg	MAZ_146.jpg	MAZ_146.jpg
257.205563068	1.8340909479999823	face	0.754305839539	1.0	0.8	n/a	n/a	259.039654016	259.056503057	260.041687965	n/a	15F_FE_O.jpg	15F_FE_O.jpg	16F_FE_O.jpg
263.09343791	1.947352171000034	shape	0.803350925446	1.0	0.8	260.129908085	263.040968895	265.040790081	265.057528019	266.03995204	n/a	oval-horizontal.bmp	oval-horizontal.bmp	oval-vertical.bmp
266.156433105	1.882496833999994	shape	0.786442995071	1.0	0.8	n/a	n/a	268.038929939	268.056029081	269.038749933	n/a	oval-horizontal.bmp	oval-vertical.bmp	oval-vertical.bmp
269.161370039	1.8775320049999773	shape	0.847059965134	1.0	0.8	n/a	n/a	271.038902044	271.055321932	272.038237095	n/a	circle.bmp	circle.bmp	oval-vertical.bmp
272.164109945	1.8738090989999705	shape	0.811151981354	1.0	0.8	n/a	n/a	274.037919044	274.054354906	275.037199974	n/a	circle.bmp	oval-vertical.bmp	oval-vertical.bmp
275.16605711	1.8662228580000144	shape	0.704988956451	1.0	0.8	n/a	n/a	277.032279968	277.049248934	278.032064915	n/a	oval-horizontal.bmp	circle.bmp	circle.bmp
278.153348923	1.880668162999996	shape	0.720741033554	1.0	0.8	n/a	n/a	280.034017086	280.050600052	281.035706043	n/a	oval-horizontal.bmp	oval-horizontal.bmp	circle.bmp
284.102494001	1.9328460699999823	face	0.902919054031	1.0	0.8	281.128742933	284.035115004	286.035340071	286.051063061	287.034269094	n/a	FFZ_18.jpg	FAZ_129.jpg	FAZ_129.jpg
287.202894926	1.8306221959999789	face	1.03665184975	1.0	0.8	n/a	n/a	289.033517122	289.050232887	290.033201933	n/a	20M_FE_O.jpg	24M_FE_O.jpg	24M_FE_O.jpg
290.173171043	1.8596858979999524	face	0.798213005066	1.0	0.8	n/a	n/a	292.032856941	292.049432993	293.031928062	n/a	FAZ_23.jpg	FAX_25.jpg	FAX_25.jpg
293.198796988	1.833313940999972	face	0.694977998734	1.0	0.8	n/a	n/a	295.032110929	295.0486691	296.031481981	n/a	33M_FE_O.jpg	33M_FE_O.jpg	35M_FE_O.jpg
296.198314905	1.8449661729999889	face	0.855072021484	1.0	0.8	n/a	n/a	298.043281078	298.060170889	299.043864965	n/a	01F_AN_O.jpg	01F_AN_O.jpg	02F_AN_O.jpg
299.195657015	1.851793051000016	face	0.903612852097	1.0	0.8	n/a	n/a	301.047450066	301.064028978	302.046724081	n/a	MFZ_132.jpg	MFZ_132.jpg	MFZ_120.jpg
305.097146988	1.948978900999976	shape	0.63490986824	1.0	0.8	302.140511036	305.04628706	307.046125889	307.06250596	308.044764996	n/a	oval-horizontal.bmp	oval-vertical.bmp	oval-vertical.bmp
308.17793107	1.867159844000014	shape	0.572608947754	1.0	0.8	n/a	n/a	310.045090914	310.061265945	311.043832064	n/a	circle.bmp	oval-vertical.bmp	oval-vertical.bmp
311.166551113	1.8773097989999885	shape	0.679795980453	1.0	0.8	n/a	n/a	313.043860912	313.060066938	314.042074919	n/a	oval-horizontal.bmp	oval-horizontal.bmp	oval-vertical.bmp
314.169662952	1.873394966999968	shape	0.661983013153	1.0	0.8	n/a	n/a	316.043057919	316.059474945	317.042052984	n/a	oval-horizontal.bmp	oval-horizontal.bmp	circle.bmp
317.176306009	1.8659288890000312	shape	0.542631864548	1.0	0.8	n/a	n/a	319.042234898	319.05833602	320.038105965	n/a	circle.bmp	circle.bmp	oval-vertical.bmp
320.172363997	1.8691470620000248	shape	0.606523036957	1.0	0.8	n/a	n/a	322.041511059	322.057801008	323.040591955	n/a	oval-horizontal.bmp	circle.bmp	circle.bmp
326.142178059	1.897950886999979	face	0.835036039352	1.0	0.8	323.135620117	326.040107965	328.040128946	328.056730032	329.038899899	n/a	17F_FE_O.jpg	18F_FE_O.jpg	18F_FE_O.jpg
329.223635912	1.8153231139999664	face	0.770213127136	1.0	0.8	n/a	n/a	331.038959026	331.055244923	332.038018942	n/a	42M_AN_O.jpg	43M_AN_O.jpg	43M_AN_O.jpg
332.212615967	1.825470924000001	face	0.727402925491	1.0	0.8	n/a	n/a	334.038086891	334.054371119	335.037276983	n/a	31M_FE_O.jpg	31M_FE_O.jpg	32M_FE_O.jpg
335.180449009	1.8559260370000168	face	0.861397981644	1.0	0.8	n/a	n/a	337.036375046	337.053587914	338.036170959	n/a	FAZ_212.jpg	FFZ_236.jpg	FFZ_236.jpg
338.203438997	1.8291080000000195	face	1.0545899868	1.0	0.8	n/a	n/a	340.032546997	340.048616886	341.032402039	n/a	06F_FE_O.jpg	06F_FE_O.jpg	08F_FE_O.jpg
341.184096098	1.8517999649999977	face	1.2866768837	1.0	0.8	n/a	n/a	343.035896063	343.052397966	344.035126925	n/a	MAZ_128.jpg	MAZ_128.jpg	MAX_39.jpg
347.085593939	1.9486150740000312	shape	0.618450880051	1.0	0.8	344.131342888	347.034334898	349.034209013	349.050547123	350.03322506	n/a	circle.bmp	oval-vertical.bmp	oval-vertical.bmp
350.168154001	1.8647670749999747	shape	0.620345115662	1.0	0.8	n/a	n/a	352.032921076	352.049405098	353.032078981	n/a	oval-horizontal.bmp	oval-horizontal.bmp	circle.bmp
353.165396929	1.8666670320000087	shape	0.662932872772	1.0	0.8	n/a	n/a	355.032063961	355.048690081	356.031388044	n/a	oval-horizontal.bmp	oval-vertical.bmp	oval-vertical.bmp
356.157377005	1.874233961000016	shape	0.631629943848	1.0	0.8	n/a	n/a	358.031610966	358.046864986	359.047106028	n/a	oval-horizontal.bmp	circle.bmp	circle.bmp
359.175873995	1.8711590769999589	shape	0.687659025192	1.0	0.8	n/a	n/a	361.047033072	361.063627958	362.042756081	n/a	oval-horizontal.bmp	oval-horizontal.bmp	oval-vertical.bmp
362.178533077	1.868393898000022	shape	0.700567960739	1.0	0.8	n/a	n/a	364.046926975	364.063071966	365.046042919	n/a	circle.bmp	circle.bmp	oval-vertical.bmp
368.112577915	1.932672978000028	face	0.952141046524	1.0	0.8	365.142959118	368.0449121	370.045250893	370.061456919	371.044203043	n/a	FFZ_18.jpg	FAZ_129.jpg	FAZ_129.jpg
371.215884924	1.82792806599997	face	0.949527025223	1.0	0.8	n/a	n/a	373.04381299	373.060275078	374.042988062	n/a	20M_FE_O.jpg	24M_FE_O.jpg	24M_FE_O.jpg
374.194591045	1.8484509000000453	face	0.757934093475	1.0	0.8	n/a	n/a	376.043041945	376.05924511	377.04212904	n/a	FAZ_23.jpg	FAX_25.jpg	FAX_25.jpg
377.218506098	1.8228788370000188	face	1.04335379601	1.0	0.8	n/a	n/a	379.041384935	379.058554888	380.041189909	n/a	33M_FE_O.jpg	33M_FE_O.jpg	35M_FE_O.jpg
380.221668959	1.8155419820000127	face	0.740730047226	1.0	0.8	n/a	n/a	382.037210941	382.055280924	383.037612915	n/a	01F_AN_O.jpg	01F_AN_O.jpg	02F_AN_O.jpg
383.19113493	1.8498201370000515	face	0.704596042633	1.0	0.8	n/a	n/a	385.040955067	385.057324886	386.039603949	394.437252998	MFZ_132.jpg	MFZ_132.jpg	MFZ_120.jpg
