onset	duration	trial_type	response_time	accuracy_binarized	tr_seconds	cueStartTime	cueEndTime	trialEndTime	fixStartTime	fixEndTime	runEndTime	stimLeft	stimTop	stimRight
11.1067650318	1.941864967399999	shape	1.26290392876	1.0	0.8	8.04253697395	11.0324261189	13.0486299992	13.065557003	14.0477881432	n/a	oval-horizontal.bmp	oval-horizontal.bmp	oval-vertical.bmp
14.175080061	1.8729629516000017	shape	1.01210713387	1.0	0.8	n/a	n/a	16.0480430126	16.0647201538	17.0480010509	n/a	oval-horizontal.bmp	oval-vertical.bmp	oval-vertical.bmp
17.1600821018	1.8876309394999995	shape	0.974549055099	1.0	0.8	n/a	n/a	19.0477130413	19.0638771057	20.0434060097	n/a	circle.bmp	circle.bmp	oval-vertical.bmp
20.1606240273	1.8861751556	shape	0.91996216774	1.0	0.8	n/a	n/a	22.0467991829	22.0629060268	23.0463740826	n/a	circle.bmp	oval-vertical.bmp	oval-vertical.bmp
23.1623241901	1.882979869899998	shape	0.818044900894	1.0	0.8	n/a	n/a	25.04530406	25.0625720024	26.0458481312	n/a	oval-horizontal.bmp	circle.bmp	circle.bmp
26.1632261276	1.8816180229	shape	0.95147895813	1.0	0.8	n/a	n/a	28.0448441505	28.0606482029	29.0441100597	n/a	oval-horizontal.bmp	oval-horizontal.bmp	circle.bmp
32.1170020103	1.9262599946000023	face	0.962713003159	1.0	0.8	29.1219069958	32.0431351662	34.0432620049	34.0593531132	35.0428609848	n/a	FAZ_23.jpg	FAZ_23.jpg	FAX_43.jpg
35.193005085	1.8495080470999952	face	0.992521047592	1.0	0.8	n/a	n/a	37.0425131321	37.0584981441	38.0406870842	n/a	26M_FE_O.jpg	26M_FE_O.jpg	27M_FE_O.BMP
38.1703159809	1.8707981109999992	face	0.8387799263	1.0	0.8	n/a	n/a	40.0411140919	40.0582010746	41.037801981	n/a	MFX_16.jpg	MFZ_50.jpg	MFZ_50.jpg
41.2048411369	1.8355560302999976	face	0.920397996902	1.0	0.8	n/a	n/a	43.0403971672	43.0573780537	44.0394070148	n/a	09F_AN_O.jpg	09F_AN_O.jpg	10F_AN_O.jpg
44.1905550957	1.848753929099999	face	0.936965942383	1.0	0.8	n/a	n/a	46.0393090248	46.0566320419	47.0397500992	n/a	38M_AN_O.BMP	39M_AN_O.jpg	39M_AN_O.jpg
47.1737949848	1.865574121500004	face	1.20130991936	1.0	0.8	n/a	n/a	49.0393691063	49.0550680161	50.0372731686	n/a	FFZ_102.jpg	FFX_130.jpg	FFX_130.jpg
53.0875060558	1.9495561123000016	shape	0.842829942703	1.0	0.8	50.1149361134	53.0372440815	55.0370621681	55.05301404	56.0355141163	n/a	oval-horizontal.bmp	oval-vertical.bmp	oval-vertical.bmp
56.145498991	1.8902721405000025	shape	0.993601083755	1.0	0.8	n/a	n/a	58.0357711315	58.0528180599	59.0353171825	n/a	circle.bmp	oval-vertical.bmp	oval-vertical.bmp
59.1482541561	1.887264967	shape	0.907914161682	1.0	0.8	n/a	n/a	61.0355191231	61.0515711308	62.048500061	n/a	oval-horizontal.bmp	oval-horizontal.bmp	oval-vertical.bmp
62.1657211781	1.869369983599995	shape	0.819247961044	1.0	0.8	n/a	n/a	64.0350911617	64.0513880253	65.0336110592	n/a	oval-horizontal.bmp	oval-horizontal.bmp	circle.bmp
65.1509721279	1.8832550048999928	shape	1.06702208519	1.0	0.8	n/a	n/a	67.0342271328	67.0504791737	68.0499401093	n/a	circle.bmp	circle.bmp	oval-vertical.bmp
68.1668009758	1.882930040399998	shape	1.00265288353	1.0	0.8	n/a	n/a	70.0497310162	70.0662620068	71.047932148	n/a	oval-horizontal.bmp	circle.bmp	circle.bmp
74.1383740902	1.9091498851999944	face	1.11213707924	1.0	0.8	71.1288120747	74.0475080013	76.0475239754	76.0636851788	77.0469880104	n/a	03F_FE_O.jpg	05F_FE_O.jpg	05F_FE_O.jpg
77.1810941696	1.8657648564000056	face	0.775559902191	1.0	0.8	n/a	n/a	79.046859026	79.0629270077	80.0459899902	n/a	FAZ_32.jpg	FAZ_32.jpg	FAX_45.jpg
80.1795651913	1.8628540038999968	face	1.15319395065	1.0	0.8	n/a	n/a	82.0424191952	82.0592010021	83.0420410633	n/a	MAZ_128.jpg	MAZ_101.jpg	MAZ_101.jpg
83.212539196	1.832300901400004	face	1.08876109123	1.0	0.8	n/a	n/a	85.0448400974	85.0617170334	86.0451321602	n/a	11F_AN_O.jpg	11F_AN_O.jpg	12F_AN_O.jpg
86.2125551701	1.8319258689000009	face	0.850965976715	1.0	0.8	n/a	n/a	88.044481039	88.060803175	89.0436542034	n/a	26M_FE_O.jpg	33M_FE_O.jpg	33M_FE_O.jpg
89.1772761345	1.866242885600002	face	0.918807983398	1.0	0.8	n/a	n/a	91.0435190201	91.0600481033	92.0425431728	n/a	MFZ_132.jpg	MFZ_132.jpg	MFZ_120.jpg
95.0935900211	1.9476041794000023	shape	0.936676025391	1.0	0.8	92.1266050339	95.0418641567	97.0411942005	97.0579731464	98.0405700207	n/a	circle.bmp	oval-vertical.bmp	oval-vertical.bmp
98.1515450478	1.888823032199994	shape	0.892789840698	1.0	0.8	n/a	n/a	100.04036808	100.056613207	101.040248156	n/a	oval-horizontal.bmp	oval-horizontal.bmp	circle.bmp
101.152686119	1.883740902	shape	0.820415019989	1.0	0.8	n/a	n/a	103.036427021	103.052754164	104.036254168	n/a	oval-horizontal.bmp	oval-vertical.bmp	oval-vertical.bmp
104.154608011	1.8848831660000087	shape	0.855539083481	1.0	0.8	n/a	n/a	106.039491177	106.055478096	107.038883209	n/a	oval-horizontal.bmp	circle.bmp	circle.bmp
107.156165123	1.881669044000006	shape	1.08661484718	1.0	0.8	n/a	n/a	109.037834167	109.055062056	110.03769803	n/a	oval-horizontal.bmp	oval-horizontal.bmp	oval-vertical.bmp
110.1559062	1.8812749389999937	shape	0.983110904694	1.0	0.8	n/a	n/a	112.037181139	112.053475142	113.036623001	n/a	circle.bmp	circle.bmp	oval-vertical.bmp
116.102492094	1.933058023000001	face	0.960323095322	1.0	0.8	113.119846106	116.035381079	118.035550117	118.051993132	119.034597158	n/a	FAZ_23.jpg	FAZ_23.jpg	FAX_43.jpg
119.178830147	1.8551280500000047	face	1.29339504242	1.0	0.8	n/a	n/a	121.033958197	121.050928116	122.03344202	n/a	26M_FE_O.jpg	26M_FE_O.jpg	27M_FE_O.BMP
122.163520098	1.8837978839999887	face	1.05375885963	1.0	0.8	n/a	n/a	124.047317982	124.064260006	125.047458172	n/a	MFZ_50.jpg	MFZ_50.jpg	MFX_16.jpg
125.214819193	1.8352198600000087	face	1.32077908516	1.0	0.8	n/a	n/a	127.050039053	127.065965176	128.049439192	n/a	10F_AN_O.jpg	09F_AN_O.jpg	09F_AN_O.jpg
128.20045805	1.8486480709999853	face	0.886785030365	1.0	0.8	n/a	n/a	130.049106121	130.064731121	131.048582077	n/a	38M_AN_O.BMP	39M_AN_O.jpg	39M_AN_O.jpg
131.182685137	1.865355968000017	face	1.25321602821	1.0	0.8	n/a	n/a	133.048041105	133.064329147	134.047116995	n/a	FFZ_102.jpg	FFX_130.jpg	FFX_130.jpg
137.096796989	1.9490480429999764	shape	1.01161003113	1.0	0.8	134.131313086	137.046285152	139.045845032	139.061886072	140.045214176	n/a	oval-horizontal.bmp	oval-horizontal.bmp	oval-vertical.bmp
140.162783146	1.882205008999989	shape	1.04174304008	1.0	0.8	n/a	n/a	142.044988155	142.061479092	143.044177055	n/a	oval-horizontal.bmp	oval-vertical.bmp	oval-vertical.bmp
143.162227154	1.879364967000015	shape	0.769623994827	1.0	0.8	n/a	n/a	145.041592121	145.058145046	146.041907072	n/a	circle.bmp	circle.bmp	oval-vertical.bmp
146.159322023	1.8846089840000104	shape	0.987378835678	1.0	0.8	n/a	n/a	148.043931007	148.060199022	149.043115139	n/a	circle.bmp	oval-vertical.bmp	oval-vertical.bmp
149.160418987	1.8816030029999808	shape	0.885433912277	1.0	0.8	n/a	n/a	151.04202199	151.059261084	152.042194128	n/a	oval-horizontal.bmp	circle.bmp	circle.bmp
152.158914089	1.882875920000004	shape	0.986960172653	1.0	0.8	n/a	n/a	154.041790009	154.058557034	155.040598154	n/a	oval-horizontal.bmp	oval-horizontal.bmp	circle.bmp
158.132308006	1.9076240070000097	face	1.5109539032	1.0	0.8	155.12741518	158.039295197	160.039932013	160.05630517	161.038377047	n/a	20M_FE_O.jpg	21M_FE_O.jpg	21M_FE_O.jpg
161.200555086	1.838274955999992	face	1.25578284264	1.0	0.8	n/a	n/a	163.038830042	163.055317163	164.037687063	n/a	01F_AN_O.jpg	07F_AN_O.jpg	07F_AN_O.jpg
164.172630072	1.863194942000007	face	1.26985502243	1.0	0.8	n/a	n/a	166.035825014	166.051652193	167.036152124	n/a	FFX_139.jpg	FFZ_102.jpg	FFZ_102.jpg
167.20592618	1.8311049939999864	face	1.08721089363	1.0	0.8	n/a	n/a	169.037031174	169.054044008	170.036609173	n/a	23M_AN_O.jpg	23M_AN_O.jpg	22M_AN_O.jpg
170.18832612	1.8475990299999976	face	0.901546001434	1.0	0.8	n/a	n/a	172.03592515	172.053373098	173.036051989	n/a	MAZ_146.jpg	MAZ_146.jpg	MAX_233.jpg
173.20346117	1.8318789010000105	face	0.902858018875	1.0	0.8	n/a	n/a	175.035340071	175.051444054	176.034958124	n/a	15F_FE_O.jpg	15F_FE_O.jpg	16F_FE_O.jpg
179.084990025	1.9489440910000155	shape	0.994263887405	1.0	0.8	176.126420021	179.033437014	181.033934116	181.050158978	182.049537182	n/a	oval-horizontal.bmp	oval-vertical.bmp	oval-vertical.bmp
182.178034067	1.8714029790000093	shape	0.809204101562	1.0	0.8	n/a	n/a	184.049437046	184.066343069	185.048888206	n/a	circle.bmp	oval-vertical.bmp	oval-vertical.bmp
185.16625905	1.879246950999999	shape	1.08614397049	1.0	0.8	n/a	n/a	187.045506001	187.062098026	188.048391104	n/a	oval-horizontal.bmp	oval-horizontal.bmp	oval-vertical.bmp
188.16396904	1.8839099409999849	shape	0.952286958694	1.0	0.8	n/a	n/a	190.047878981	190.063975096	191.047794104	n/a	oval-horizontal.bmp	oval-horizontal.bmp	circle.bmp
191.165311098	1.8822550769999964	shape	1.1024119854	1.0	0.8	n/a	n/a	193.047566175	193.063628197	194.045897007	n/a	circle.bmp	circle.bmp	oval-vertical.bmp
194.163689137	1.8821198939999988	shape	1.25345301628	1.0	0.8	n/a	n/a	196.045809031	196.06261611	197.045579195	n/a	oval-horizontal.bmp	circle.bmp	circle.bmp
200.112723112	1.9320790769999967	face	1.27582788467	1.0	0.8	197.133509159	200.044394016	202.044802189	202.061061144	203.043544054	n/a	FFX_54.jpg	FFX_54.jpg	FAX_51.jpg
203.19404912	1.849680901	face	1.42516708374	1.0	0.8	n/a	n/a	205.043730021	205.059869051	206.042944193	n/a	40M_FE_O.BMP	41M_FE_O.jpg	41M_FE_O.jpg
206.206500053	1.8335421089999784	face	1.08464717865	1.0	0.8	n/a	n/a	208.040042162	208.056898117	209.042298079	n/a	29M_AN_O.jpg	29M_AN_O.jpg	28M_AN_O.jpg
209.208468199	1.8326718799999924	face	0.93746304512	1.0	0.8	n/a	n/a	211.041140079	211.058191061	212.041872978	n/a	FFZ_18.jpg	FFZ_29.jpg	FFZ_29.jpg
212.20957613	1.830873012000012	face	1.58465218544	1.0	0.8	n/a	n/a	214.040449142	214.057779074	215.040393114	n/a	19F_AN_O.jpg	19F_AN_O.jpg	09F_AN_O.jpg
215.177613974	1.8624072069999893	face	1.28219604492	1.0	0.8	n/a	n/a	217.040021181	217.056293011	218.038547039	n/a	MFZ_132.jpg	MFZ_7.jpg	MFZ_7.jpg
221.089490175	1.949065923999996	shape	1.12737107277	1.0	0.8	218.128713131	221.038293123	223.038556099	223.054537058	224.037365198	n/a	circle.bmp	oval-vertical.bmp	oval-vertical.bmp
224.166476011	1.8706240660000049	shape	0.908817052841	1.0	0.8	n/a	n/a	226.037100077	226.053731203	227.036815166	n/a	oval-horizontal.bmp	oval-horizontal.bmp	circle.bmp
227.168107033	1.865785121999977	shape	1.17103385925	1.0	0.8	n/a	n/a	229.033892155	229.050708055	230.035773993	n/a	oval-horizontal.bmp	oval-vertical.bmp	oval-vertical.bmp
230.185194016	1.850661039000016	shape	1.28711009026	1.0	0.8	n/a	n/a	232.035855055	232.052788019	233.035216093	n/a	oval-horizontal.bmp	circle.bmp	circle.bmp
233.169712067	1.865426063000001	shape	1.08446407318	1.0	0.8	n/a	n/a	235.03513813	235.051203012	236.034481049	n/a	oval-horizontal.bmp	oval-horizontal.bmp	oval-vertical.bmp
236.168093204	1.8826358320000047	shape	0.935045003891	1.0	0.8	n/a	n/a	238.050729036	238.066824198	239.049328089	n/a	circle.bmp	circle.bmp	oval-vertical.bmp
242.14144516	1.907472849000016	face	1.41112399101	1.0	0.8	239.141691208	242.049023151	244.048918009	244.064602137	245.047286987	n/a	20M_FE_O.jpg	21M_FE_O.jpg	21M_FE_O.jpg
245.209850073	1.837692976	face	1.12362599373	1.0	0.8	n/a	n/a	247.047543049	247.064709187	248.04321003	n/a	07F_AN_O.jpg	07F_AN_O.jpg	01F_AN_O.jpg
248.195481062	1.8500370980000007	face	1.40523791313	1.0	0.8	n/a	n/a	250.04551816	250.061056137	251.04612112	n/a	FFZ_102.jpg	FFZ_102.jpg	FFX_139.jpg
251.213258982	1.833455084999997	face	1.10299515724	1.0	0.8	n/a	n/a	253.046714067	253.063203096	254.045868158	n/a	22M_AN_O.jpg	23M_AN_O.jpg	23M_AN_O.jpg
254.197219133	1.848242044999978	face	0.851362943649	1.0	0.8	n/a	n/a	256.045461178	256.062033176	257.04414916	n/a	MAX_233.jpg	MAZ_146.jpg	MAZ_146.jpg
257.211659193	1.8325848580000184	face	1.28493094444	1.0	0.8	n/a	n/a	259.044244051	259.06054306	260.04363513	n/a	15F_FE_O.jpg	15F_FE_O.jpg	16F_FE_O.jpg
263.0935781	1.948692084000016	shape	1.09337687492	1.0	0.8	260.138554096	263.042918205	265.042270184	265.05928421	266.041876078	n/a	oval-horizontal.bmp	oval-horizontal.bmp	oval-vertical.bmp
266.170346022	1.8711690900000235	shape	1.02720713615	1.0	0.8	n/a	n/a	268.041515112	268.057598114	269.037459135	n/a	oval-horizontal.bmp	oval-vertical.bmp	oval-vertical.bmp
269.17239213	1.8685519690000088	shape	1.05341696739	1.0	0.8	n/a	n/a	271.040944099	271.057660103	272.040934086	n/a	circle.bmp	circle.bmp	oval-vertical.bmp
272.173557043	1.866508006999993	shape	1.05138802528	1.0	0.8	n/a	n/a	274.04006505	274.05627799	275.039990187	n/a	circle.bmp	oval-vertical.bmp	oval-vertical.bmp
275.174458981	1.8649060719999968	shape	0.819270849228	1.0	0.8	n/a	n/a	277.039365053	277.056061983	278.038264036	n/a	oval-horizontal.bmp	circle.bmp	circle.bmp
278.173125029	1.865319967000005	shape	1.00197696686	1.0	0.8	n/a	n/a	280.038444996	280.054491997	281.037856102	n/a	oval-horizontal.bmp	oval-horizontal.bmp	circle.bmp
284.104333162	1.932492018000005	face	0.927297830582	1.0	0.8	281.134083033	284.036751032	286.03682518	286.052632093	287.034990072	n/a	FFZ_18.jpg	FAZ_129.jpg	FAZ_129.jpg
287.20522213	1.8308479780000084	face	1.02424693108	1.0	0.8	n/a	n/a	289.036070108	289.052302122	290.048313141	n/a	20M_FE_O.jpg	24M_FE_O.jpg	24M_FE_O.jpg
290.199735165	1.835237979999988	face	1.18681502342	1.0	0.8	n/a	n/a	292.034973145	292.052035093	293.034506083	n/a	FAZ_23.jpg	FAX_25.jpg	FAX_25.jpg
293.201927185	1.848896027000024	face	0.887135028839	1.0	0.8	n/a	n/a	295.050823212	295.067713022	296.050176144	n/a	33M_FE_O.jpg	33M_FE_O.jpg	35M_FE_O.jpg
296.235074043	1.814717055000017	face	0.967558145523	1.0	0.8	n/a	n/a	298.049791098	298.06656909	299.048916101	n/a	01F_AN_O.jpg	01F_AN_O.jpg	02F_AN_O.jpg
299.201588154	1.8470170500000336	face	0.866791963577	1.0	0.8	n/a	n/a	301.048605204	301.065143108	302.047864199	n/a	MFZ_132.jpg	MFZ_132.jpg	MFZ_120.jpg
305.097495079	1.949764012999992	shape	0.891118049622	1.0	0.8	302.146341085	305.047026157	307.047259092	307.063097	308.046469212	n/a	oval-horizontal.bmp	oval-vertical.bmp	oval-vertical.bmp
308.174838066	1.8711109160000208	shape	0.973959207535	1.0	0.8	n/a	n/a	310.045948982	310.062867165	311.042597055	n/a	circle.bmp	oval-vertical.bmp	oval-vertical.bmp
311.177098989	1.868752002999997	shape	0.917695045471	1.0	0.8	n/a	n/a	313.045850992	313.061822176	314.045669079	n/a	oval-horizontal.bmp	oval-horizontal.bmp	oval-vertical.bmp
314.179041147	1.8658678529999968	shape	1.00549888611	1.0	0.8	n/a	n/a	316.044909	316.061388016	317.044540167	n/a	oval-horizontal.bmp	oval-horizontal.bmp	circle.bmp
317.177917004	1.865522145999989	shape	1.01902914047	1.0	0.8	n/a	n/a	319.04343915	319.060361147	320.042258978	n/a	circle.bmp	circle.bmp	oval-vertical.bmp
320.177488089	1.864701986	shape	1.16888093948	1.0	0.8	n/a	n/a	322.042190075	322.059271097	323.042290211	n/a	oval-horizontal.bmp	circle.bmp	circle.bmp
326.134131193	1.907049894000011	face	1.29271817207	1.0	0.8	323.139801025	326.041149139	328.041181087	328.057252169	329.040096998	n/a	17F_FE_O.jpg	18F_FE_O.jpg	18F_FE_O.jpg
329.220031023	1.819931983999993	face	1.02481293678	1.0	0.8	n/a	n/a	331.039963007	331.056857109	332.036002159	n/a	42M_AN_O.jpg	43M_AN_O.jpg	43M_AN_O.jpg
332.221212149	1.8175868980000016	face	1.00440502167	1.0	0.8	n/a	n/a	334.038799047	334.056015015	335.038874149	n/a	31M_FE_O.jpg	31M_FE_O.jpg	32M_FE_O.jpg
335.189503193	1.8497159479999823	face	0.984351873398	1.0	0.8	n/a	n/a	337.039219141	337.055160046	338.038151979	n/a	FAZ_212.jpg	FFZ_236.jpg	FFZ_236.jpg
338.222141981	1.815515041000026	face	0.868624925613	1.0	0.8	n/a	n/a	340.037657022	340.053894997	341.0364182	n/a	06F_FE_O.jpg	06F_FE_O.jpg	08F_FE_O.jpg
341.187488079	1.8489980699999933	face	1.08640885353	1.0	0.8	n/a	n/a	343.036486149	343.053092003	344.036118984	n/a	MAZ_128.jpg	MAZ_128.jpg	MAX_39.jpg
347.085870981	1.948854208	shape	0.976250886917	1.0	0.8	344.140284061	347.035513163	349.034725189	349.050711155	350.033779144	n/a	circle.bmp	oval-vertical.bmp	oval-vertical.bmp
350.168583155	1.878190993999965	shape	0.938817977905	1.0	0.8	n/a	n/a	352.046774149	352.064077139	353.047384977	n/a	oval-horizontal.bmp	oval-horizontal.bmp	circle.bmp
353.182167053	1.8681011200000053	shape	0.889279842377	1.0	0.8	n/a	n/a	355.050268173	355.067145109	356.049342155	n/a	oval-horizontal.bmp	oval-vertical.bmp	oval-vertical.bmp
356.183475018	1.8659119599999483	shape	0.870343923569	1.0	0.8	n/a	n/a	358.049386978	358.065838099	359.048696995	n/a	oval-horizontal.bmp	circle.bmp	circle.bmp
359.183694124	1.863888025999984	shape	1.23464393616	1.0	0.8	n/a	n/a	361.04758215	361.064825058	362.047120094	n/a	oval-horizontal.bmp	oval-horizontal.bmp	oval-vertical.bmp
362.214883089	1.8321120740000083	shape	1.00258493423	1.0	0.8	n/a	n/a	364.046995163	364.062967062	365.04662919	n/a	circle.bmp	circle.bmp	oval-vertical.bmp
368.112667084	1.9329299919999696	face	1.30998802185	1.0	0.8	365.150274038	368.045202017	370.045597076	370.061825037	371.044756174	n/a	FFZ_18.jpg	FAZ_129.jpg	FAZ_129.jpg
371.340480089	1.7010929589999932	face	1.48821091652	1.0	0.8	n/a	n/a	373.041573048	373.057748079	374.041197062	n/a	20M_FE_O.jpg	24M_FE_O.jpg	24M_FE_O.jpg
374.259467125	1.7847719189999791	face	1.0069630146	1.0	0.8	n/a	n/a	376.044239044	376.060092211	377.043419123	n/a	FAZ_23.jpg	FAX_25.jpg	FAX_25.jpg
377.227338076	1.8160879609999936	face	1.06890797615	1.0	0.8	n/a	n/a	379.043426037	379.059372187	380.041543007	n/a	33M_FE_O.jpg	33M_FE_O.jpg	35M_FE_O.jpg
380.227043152	1.8148849009999708	face	1.03601193428	1.0	0.8	n/a	n/a	382.041928053	382.059058189	383.041345119	n/a	01F_AN_O.jpg	01F_AN_O.jpg	02F_AN_O.jpg
383.19139719	1.8488969800000064	face	0.918885946274	1.0	0.8	n/a	n/a	385.04029417	385.057543993	386.039627075	394.438295126	MFZ_132.jpg	MFZ_132.jpg	MFZ_120.jpg
