onset	duration	trial_type	response_time	accuracy_binarized	tr_seconds	cueStartTime	cueEndTime	trialEndTime	fixStartTime	fixEndTime	runEndTime	stimLeft	stimTop	stimRight
11.129794836044312	1.934391975402832	shape	1.03402090073	1.0	0.8	8.067439794540405	11.062939882278442	13.064186811447144	13.095870018005373	14.096292972564695	n/a	oval-horizontal.bmp	oval-horizontal.bmp	oval-vertical.bmp
14.196080923080444	1.9006810188293457	shape	0.800579071045	1.0	0.8	n/a	n/a	16.09676194190979	16.129339933395386	17.096410989761353	n/a	oval-horizontal.bmp	oval-vertical.bmp	oval-vertical.bmp
17.196098804473877	1.9004051685333216	shape	0.800594091415	1.0	0.8	n/a	n/a	19.0965039730072	19.129148960113525	20.09623599052429	n/a	circle.bmp	circle.bmp	oval-vertical.bmp
20.17930698394776	1.9006299972534109	shape	0.80051112175	1.0	0.8	n/a	n/a	22.07993698120117	22.11251282691956	23.07968783378601	n/a	circle.bmp	oval-vertical.bmp	oval-vertical.bmp
23.17937397956848	1.900893926620484	shape	0.866885900497	1.0	0.8	n/a	n/a	25.080267906188965	25.112617015838623	26.07967782020569	n/a	oval-horizontal.bmp	circle.bmp	circle.bmp
26.17967391014099	1.9002571105957	shape	0.733704090118	1.0	0.8	n/a	n/a	28.07993102073669	28.11254596710205	29.079689025878903	n/a	oval-horizontal.bmp	oval-horizontal.bmp	circle.bmp
32.16279983520508	1.933701992034912	face	0.833736896515	1.0	0.8	29.135273933410645	32.096226930618286	34.09650182723999	34.12945199012756	35.096407890319824	n/a	FAZ_23.jpg	FAZ_23.jpg	FAX_43.jpg
35.22966694831848	1.8672549724578853	face	0.900572061539	1.0	0.8	n/a	n/a	37.09692192077637	37.12946581840515	38.0963339805603	n/a	26M_FE_O.jpg	26M_FE_O.jpg	27M_FE_O.BMP
38.213220834732056	1.8671469688415527	face	0.767171144485	1.0	0.8	n/a	n/a	40.08036780357361	40.11264991760254	41.09942603111267	n/a	MFX_16.jpg	MFZ_50.jpg	MFZ_50.jpg
41.23003101348877	1.868883848190308	face	0.965911865234	1.0	0.8	n/a	n/a	43.09891486167908	43.129870891571045	44.09953999519348	n/a	09F_AN_O.jpg	09F_AN_O.jpg	10F_AN_O.jpg
44.23000288009644	1.86893892288208	face	0.732632160187	1.0	0.8	n/a	n/a	46.09894180297852	46.1298098564148	47.099555015563965	n/a	38M_AN_O.BMP	39M_AN_O.jpg	39M_AN_O.jpg
47.21338486671448	1.8689451217651367	face	0.999344110489	1.0	0.8	n/a	n/a	49.082329988479614	49.113093852996826	50.08280801773071	n/a	FFZ_102.jpg	FFX_130.jpg	FFX_130.jpg
53.163519859313965	1.9362051486969	shape	1.03392910957	1.0	0.8	50.13339185714722	53.09890794754028	55.099725008010864	55.12985181808472	56.099653005599976	n/a	oval-horizontal.bmp	oval-vertical.bmp	oval-vertical.bmp
56.1967089176178	1.902764081954956	shape	0.733101844788	1.0	0.8	n/a	n/a	58.099472999572754	58.12981200218201	59.099644899368286	n/a	circle.bmp	oval-vertical.bmp	oval-vertical.bmp
59.19679093360901	1.902782917022705	shape	0.86648106575	1.0	0.8	n/a	n/a	61.099573850631714	61.12994194030762	62.09955382347107	n/a	oval-horizontal.bmp	oval-horizontal.bmp	oval-vertical.bmp
62.19709992408752	1.90204310417176	shape	0.766531944275	1.0	0.8	n/a	n/a	64.09914302825928	64.12984585762024	65.09948992729187	n/a	oval-horizontal.bmp	oval-horizontal.bmp	circle.bmp
65.1799669265747	1.902451038360596	shape	1.0323240757	1.0	0.8	n/a	n/a	67.0824179649353	67.1131579875946	68.08280992507935	n/a	circle.bmp	circle.bmp	oval-vertical.bmp
68.16336584091187	1.9357609748840328	shape	0.764873981476	1.0	0.8	n/a	n/a	70.0991268157959	70.12983894348145	71.09950685501099	n/a	oval-horizontal.bmp	circle.bmp	circle.bmp
74.19699287414551	1.9018070697784424	face	0.799557924271	1.0	0.8	71.14509987831116	74.09884095191956	76.09879994392395	76.12986397743225	77.09955382347107	n/a	03F_FE_O.jpg	05F_FE_O.jpg	05F_FE_O.jpg
77.19679284095764	1.9018921852111816	face	0.965968132019	1.0	0.8	n/a	n/a	79.09868502616882	79.12990093231201	80.09954786300659	n/a	FAZ_32.jpg	FAZ_32.jpg	FAX_45.jpg
80.21349787712097	1.869041919708252	face	0.732501983643	1.0	0.8	n/a	n/a	82.08253979682922	82.11343383789062	83.08310198783875	n/a	MAZ_128.jpg	MAZ_101.jpg	MAZ_101.jpg
83.23092579841614	1.8681890964508057	face	0.766005992889	1.0	0.8	n/a	n/a	85.09911489486694	85.13010287284851	86.09981489181519	n/a	11F_AN_O.jpg	11F_AN_O.jpg	12F_AN_O.jpg
86.26437282562256	1.8347461223602293	face	0.665902137756	1.0	0.8	n/a	n/a	88.09911894798279	88.13013291358948	89.06661081314087	n/a	26M_FE_O.jpg	33M_FE_O.jpg	33M_FE_O.jpg
89.18021702766418	1.9023988246917725	face	0.799028158188	1.0	0.8	n/a	n/a	91.08261585235596	91.11346793174744	92.08320093154909	n/a	MFZ_132.jpg	MFZ_132.jpg	MFZ_120.jpg
95.16363883018494	1.936295986175537	shape	0.93358206749	1.0	0.8	92.14032101631165	95.09917998313904	97.09993481636047	97.130224943161	98.09990096092224	n/a	circle.bmp	oval-vertical.bmp	oval-vertical.bmp
98.1970489025116	1.902765989303603	shape	0.666300058365	1.0	0.8	n/a	n/a	100.0998148918152	100.1302478313446	101.09993195533752	n/a	oval-horizontal.bmp	oval-horizontal.bmp	circle.bmp
101.19708490371704	1.902731895446777	shape	0.699828147888	1.0	0.8	n/a	n/a	103.09981679916382	103.13026189804076	104.0666708946228	n/a	oval-horizontal.bmp	oval-vertical.bmp	oval-vertical.bmp
104.16367197036745	1.9361870288848733	shape	1.03190898895	1.0	0.8	n/a	n/a	106.09985899925232	106.1301770210266	107.06664991378784	n/a	oval-horizontal.bmp	circle.bmp	circle.bmp
107.16367387771606	1.936244010925293	shape	0.765259027481	1.0	0.8	n/a	n/a	109.09991788864136	109.13019895553587	110.06659698486328	n/a	oval-horizontal.bmp	oval-horizontal.bmp	oval-vertical.bmp
110.16367793083192	1.93616795539856	shape	0.832621097565	1.0	0.8	n/a	n/a	112.09984588623048	112.13032388687134	113.06680488586426	n/a	circle.bmp	circle.bmp	oval-vertical.bmp
116.16384100914	1.9358220100402967	face	0.666697978973	1.0	0.8	113.12595295906068	116.08275485038756	118.0996630191803	118.1303858757019	119.06684994697572	n/a	FAZ_23.jpg	FAZ_23.jpg	FAX_43.jpg
119.21405792236328	1.8688619136810445	face	0.765759944916	1.0	0.8	n/a	n/a	121.08291983604433	121.11378502845764	122.083349943161	n/a	26M_FE_O.jpg	26M_FE_O.jpg	27M_FE_O.BMP
122.1972508430481	1.90228009223938	face	0.666051864624	1.0	0.8	n/a	n/a	124.09953093528748	124.13047885894775	125.06690502166748	n/a	MFZ_50.jpg	MFZ_50.jpg	MFX_16.jpg
125.21410584449768	1.868906021118164	face	0.765807151794	1.0	0.8	n/a	n/a	127.08301186561584	127.11383700370789	128.0835518836975	n/a	10F_AN_O.jpg	09F_AN_O.jpg	09F_AN_O.jpg
128.2139048576355	1.86912202835083	face	0.666132926941	1.0	0.8	n/a	n/a	130.08302688598633	130.11386799812317	131.08354902267456	n/a	38M_AN_O.BMP	39M_AN_O.jpg	39M_AN_O.jpg
131.19732189178467	1.9022810459136963	face	0.799180984497	1.0	0.8	n/a	n/a	133.09960293769836	133.1305799484253	134.06691098213196	n/a	FFZ_102.jpg	FFX_130.jpg	FFX_130.jpg
137.13078784942627	1.9696860313415527	shape	0.967161893845	1.0	0.8	134.124675989151	137.08281898498535	139.10047388076782	139.13060784339905	140.06689882278442	n/a	oval-horizontal.bmp	oval-horizontal.bmp	oval-vertical.bmp
140.16406893730164	1.935865879058838	shape	0.799180984497	1.0	0.8	n/a	n/a	142.09993481636047	142.13072180747986	143.06686902046204	n/a	oval-horizontal.bmp	oval-vertical.bmp	oval-vertical.bmp
143.16418290138245	1.935985088348389	shape	0.865071058273	1.0	0.8	n/a	n/a	145.10016798973083	145.13067984580994	146.06701588630676	n/a	circle.bmp	circle.bmp	oval-vertical.bmp
146.1640989780426	1.9361300468444824	shape	0.999622821808	1.0	0.8	n/a	n/a	148.10022902488708	148.13071393966675	149.0669448375702	n/a	circle.bmp	oval-vertical.bmp	oval-vertical.bmp
149.1641218662262	1.935874938964844	shape	1.2662498951	1.0	0.8	n/a	n/a	151.09999680519104	151.130539894104	152.06707096099854	n/a	oval-horizontal.bmp	circle.bmp	circle.bmp
152.16416096687317	1.9361729621887207	shape	0.898374080658	1.0	0.8	n/a	n/a	154.1003339290619	154.13076186180115	155.06693482398987	n/a	oval-horizontal.bmp	oval-horizontal.bmp	circle.bmp
158.18083596229553	1.9020249843597408	face	0.898970127106	1.0	0.8	155.1151340007782	158.0829257965088	160.08286094665527	160.1139619350433	161.083655834198	n/a	20M_FE_O.jpg	21M_FE_O.jpg	21M_FE_O.jpg
161.21427989006042	1.86857008934021	face	0.898991823196	1.0	0.8	n/a	n/a	163.08284997940063	163.1143147945404	164.08348393440247	n/a	01F_AN_O.jpg	07F_AN_O.jpg	07F_AN_O.jpg
164.19752097129822	1.9019780158996584	face	0.798973083496	1.0	0.8	n/a	n/a	166.09949898719788	166.13069701194763	167.06708884239197	n/a	FFX_139.jpg	FFZ_102.jpg	FFZ_102.jpg
167.19809293746948	1.901472091674805	face	0.832207918167	1.0	0.8	n/a	n/a	169.0995650291443	169.13078999519348	170.06707000732422	n/a	23M_AN_O.jpg	23M_AN_O.jpg	22M_AN_O.jpg
170.1810028553009	1.901900053024292	face	0.798107862473	1.0	0.8	n/a	n/a	172.0829029083252	172.114159822464	173.08375883102417	n/a	MAZ_146.jpg	MAZ_146.jpg	MAX_233.jpg
173.21445679664612	1.8684711456298828	face	1.43238186836	1.0	0.8	n/a	n/a	175.082927942276	175.11413598060608	176.08378887176514	n/a	15F_FE_O.jpg	15F_FE_O.jpg	16F_FE_O.jpg
179.13136196136475	1.9360959529876425	shape	0.93386888504	1.0	0.8	176.13405585289	179.06669092178345	181.0674579143524	181.0977067947388	182.06736493110657	n/a	oval-horizontal.bmp	oval-vertical.bmp	oval-vertical.bmp
182.1645789146424	1.902642011642428	shape	0.766393899918	1.0	0.8	n/a	n/a	184.0672209262848	184.09788990020752	185.06739687919617	n/a	circle.bmp	oval-vertical.bmp	oval-vertical.bmp
185.16441583633423	1.9028949737548828	shape	0.765475988388	1.0	0.8	n/a	n/a	187.0673108100891	187.09783101081848	188.06726384162903	n/a	oval-horizontal.bmp	oval-horizontal.bmp	oval-vertical.bmp
188.1646738052368	1.9029090404510784	shape	0.632655858994	1.0	0.8	n/a	n/a	190.06758284568787	190.0977568626404	191.06735587120056	n/a	oval-horizontal.bmp	oval-horizontal.bmp	circle.bmp
191.16448402404785	1.902774810791016	shape	0.731960058212	1.0	0.8	n/a	n/a	193.06725883483887	193.0976989269257	194.0674829483032	n/a	circle.bmp	circle.bmp	oval-vertical.bmp
194.1645460128784	1.902511835098295	shape	0.865209102631	1.0	0.8	n/a	n/a	196.06705784797668	196.09795880317688	197.0675058364868	n/a	oval-horizontal.bmp	circle.bmp	circle.bmp
200.1645519733429	1.9359278678894043	face	0.698328018188	1.0	0.8	197.1263768672943	200.08357191085813	202.1004798412323	202.13116002082825	203.0675477981568	n/a	FFX_54.jpg	FFX_54.jpg	FAX_51.jpg
203.2147159576416	1.869127988815308	face	0.865861177444	1.0	0.8	n/a	n/a	205.0838439464569	205.11455583572388	206.08433985710144	n/a	40M_FE_O.BMP	41M_FE_O.jpg	41M_FE_O.jpg
206.2313208580017	1.8689701557159424	face	0.6659719944	1.0	0.8	n/a	n/a	208.10029101371765	208.1312429904937	209.06761384010315	n/a	29M_AN_O.jpg	29M_AN_O.jpg	28M_AN_O.jpg
209.1815958023072	1.902261018752995	face	0.798702955246	1.0	0.8	n/a	n/a	211.08385682106007	211.1146388053894	212.08434391021729	n/a	FFZ_18.jpg	FFZ_29.jpg	FFZ_29.jpg
212.23146080970764	1.8357481956481927	face	0.965610027313	1.0	0.8	n/a	n/a	214.06720900535583	214.0979528427124	215.06766080856323	n/a	19F_AN_O.jpg	19F_AN_O.jpg	09F_AN_O.jpg
215.181391954422	1.902452945709257	face	0.898591041565	1.0	0.8	n/a	n/a	217.08384490013125	217.11468386650083	218.08440279960632	n/a	MFZ_132.jpg	MFZ_7.jpg	MFZ_7.jpg
221.11489582061768	1.9364399909973145	shape	0.933922052383	1.0	0.8	218.14620995521545	221.0668408870697	223.051335811615	223.08119297027588	224.08429884910583	n/a	circle.bmp	oval-vertical.bmp	oval-vertical.bmp
224.1814739704132	1.9029569625854208	shape	0.699363946915	1.0	0.8	n/a	n/a	226.08443093299863	226.1147689819336	227.08423590660087	n/a	oval-horizontal.bmp	oval-horizontal.bmp	circle.bmp
227.18144583702087	1.9024419784545608	shape	0.898633003235	1.0	0.8	n/a	n/a	229.08388781547544	229.1146318912506	230.0842638015747	n/a	oval-horizontal.bmp	oval-vertical.bmp	oval-vertical.bmp
230.18136882781985	1.9025540351867392	shape	0.731925964355	1.0	0.8	n/a	n/a	232.0839228630066	232.11468601226807	233.08434081077576	n/a	oval-horizontal.bmp	circle.bmp	circle.bmp
233.1815149784088	1.9024889469146729	shape	0.59868311882	1.0	0.8	n/a	n/a	235.0840039253235	235.1146638393402	236.084303855896	n/a	oval-horizontal.bmp	oval-horizontal.bmp	oval-vertical.bmp
236.1815869808197	1.9023230075835893	shape	0.732012987137	1.0	0.8	n/a	n/a	238.0839099884033	238.11466789245603	239.0843608379364	n/a	circle.bmp	circle.bmp	oval-vertical.bmp
242.1653788089752	1.901707172393856	face	1.59962201118	1.0	0.8	239.13892197608948	242.06702089309687	244.06708598136905	244.09804701805115	245.0677568912506	n/a	20M_FE_O.jpg	21M_FE_O.jpg	21M_FE_O.jpg
245.19866394996643	1.868224859237671	face	0.86572599411	1.0	0.8	n/a	n/a	247.0668888092041	247.09810400009155	248.0677700042725	n/a	07F_AN_O.jpg	07F_AN_O.jpg	01F_AN_O.jpg
248.18164682388303	1.901967048645048	face	0.864766120911	1.0	0.8	n/a	n/a	250.08361387252808	250.1147849559784	251.0844748020172	n/a	FFZ_102.jpg	FFZ_102.jpg	FFX_139.jpg
251.21519494056705	1.868368864059448	face	1.23237299919	1.0	0.8	n/a	n/a	253.0835638046265	253.11478900909424	254.0844829082489	n/a	22M_AN_O.jpg	23M_AN_O.jpg	23M_AN_O.jpg
254.19906282424927	1.867946147918758	face	0.799023151398	1.0	0.8	n/a	n/a	256.067008972168	256.0981819629669	257.0678298473358	n/a	MAX_233.jpg	MAZ_146.jpg	MAZ_146.jpg
257.1989119052887	1.8680810928345293	face	0.898891925812	1.0	0.8	n/a	n/a	259.0669929981232	259.09817481040955	260.0678768157959	n/a	15F_FE_O.jpg	15F_FE_O.jpg	16F_FE_O.jpg
263.1321008205414	1.9355740547180176	shape	0.800369024277	1.0	0.8	260.1215739250183	263.08386397361755	265.0676748752594	265.09821486473083	266.067932844162	n/a	oval-horizontal.bmp	oval-horizontal.bmp	oval-vertical.bmp
266.1650779247284	1.902540922164917	shape	0.864982843399	1.0	0.8	n/a	n/a	268.0676188468933	268.0983259677887	269.067911863327	n/a	oval-horizontal.bmp	oval-vertical.bmp	oval-vertical.bmp
269.16519498825073	1.9023549556732176	shape	1.00211691856	1.0	0.8	n/a	n/a	271.06754994392395	271.0982778072357	272.06798100471497	n/a	circle.bmp	circle.bmp	oval-vertical.bmp
272.1650938987732	1.9025299549102783	shape	0.964890003204	1.0	0.8	n/a	n/a	274.0676238536835	274.098308801651	275.06797194480896	n/a	circle.bmp	oval-vertical.bmp	oval-vertical.bmp
275.16520285606384	1.902515172958374	shape	0.864833116531	1.0	0.8	n/a	n/a	277.0677180290222	277.098326921463	278.0680170059204	n/a	oval-horizontal.bmp	circle.bmp	circle.bmp
278.16521191596985	1.902534008026123	shape	0.964988946915	1.0	0.8	n/a	n/a	280.067745923996	280.09842586517334	281.0680148601532	n/a	oval-horizontal.bmp	oval-horizontal.bmp	circle.bmp
284.1485478878021	1.935420036315918	face	0.833071947098	1.0	0.8	281.1232068538666	284.0840618610382	286.08396792411804	286.1151988506317	287.0850248336792	n/a	FFZ_18.jpg	FAZ_129.jpg	FAZ_129.jpg
287.2320578098297	1.8355901241303056	face	1.09933900833	1.0	0.8	n/a	n/a	289.06764793396	289.0987198352814	290.0683479309082	n/a	20M_FE_O.jpg	24M_FE_O.jpg	24M_FE_O.jpg
290.1994309425354	1.8682870864868164	face	1.13268613815	1.0	0.8	n/a	n/a	292.0677180290222	292.0985128879547	293.0683479309082	n/a	FAZ_23.jpg	FAX_25.jpg	FAX_25.jpg
293.21566796302795	1.8689229488372805	face	0.932718038559	1.0	0.8	n/a	n/a	295.08459091186523	295.1153619289398	296.0851089954376	n/a	33M_FE_O.jpg	33M_FE_O.jpg	35M_FE_O.jpg
296.23214197158813	1.8356268405914875	face	0.965847015381	1.0	0.8	n/a	n/a	298.0677688121796	298.0986428260803	299.068354845047	n/a	01F_AN_O.jpg	01F_AN_O.jpg	02F_AN_O.jpg
299.1992259025574	1.8683230876922607	face	1.16571807861	1.0	0.8	n/a	n/a	301.06754899024963	301.09863781929016	302.068470954895	n/a	MFZ_132.jpg	MFZ_132.jpg	MFZ_120.jpg
305.1324248313904	1.9361240863800049	shape	0.867259025574	1.0	0.8	302.13269782066345	305.06771993637085	307.0685489177704	307.0987739562988	308.0684838294983	n/a	oval-horizontal.bmp	oval-vertical.bmp	oval-vertical.bmp
308.165561914444	1.902762889862004	shape	0.6984770298	1.0	0.8	n/a	n/a	310.06832480430603	310.09878492355347	311.0684609413147	n/a	circle.bmp	oval-vertical.bmp	oval-vertical.bmp
311.165561914444	1.902838945388794	shape	1.002202034	1.0	0.8	n/a	n/a	313.0684008598328	313.0987808704376	314.06854581832886	n/a	oval-horizontal.bmp	oval-horizontal.bmp	oval-vertical.bmp
314.165561914444	1.90286207199091	shape	0.898601055145	1.0	0.8	n/a	n/a	316.06842398643494	316.09883999824524	317.0683808326721	n/a	oval-horizontal.bmp	oval-horizontal.bmp	circle.bmp
317.1656959056854	1.902415037155152	shape	0.79859495163	1.0	0.8	n/a	n/a	319.0681109428406	319.098974943161	320.0684678554535	n/a	circle.bmp	circle.bmp	oval-vertical.bmp
320.1656198501587	1.9028079509735107	shape	0.865203857422	1.0	0.8	n/a	n/a	322.0684278011322	322.09891080856323	323.06856083869934	n/a	oval-horizontal.bmp	circle.bmp	circle.bmp
326.16577792167664	1.9020860195159912	face	0.998919963837	1.0	0.8	323.1335179805756	326.0679178237915	328.0678639411926	328.09905195236206	329.06863594055176	n/a	17F_FE_O.jpg	18F_FE_O.jpg	18F_FE_O.jpg
329.2158668041229	1.8686530590057373	face	0.765917062759	1.0	0.8	n/a	n/a	331.08451986312866	331.1157488822937	332.08538484573364	n/a	42M_AN_O.jpg	43M_AN_O.jpg	43M_AN_O.jpg
332.2324249744415	1.8355920314788816	face	0.832677125931	1.0	0.8	n/a	n/a	334.0680170059204	334.0991199016571	335.06850481033325	n/a	31M_FE_O.jpg	31M_FE_O.jpg	32M_FE_O.jpg
335.18260979652405	1.9020662307739256	face	0.765023946762	1.0	0.8	n/a	n/a	337.084676027298	337.115690946579	338.0853497982025	n/a	FAZ_212.jpg	FFZ_236.jpg	FFZ_236.jpg
338.2326009273529	1.8354949951171875	face	0.965824127197	1.0	0.8	n/a	n/a	340.0680959224701	340.09901094436646	341.0687289237976	n/a	06F_FE_O.jpg	06F_FE_O.jpg	08F_FE_O.jpg
341.19985485076904	1.868283987045345	face	0.966152906418	1.0	0.8	n/a	n/a	343.0681388378144	343.099063873291	344.0687069892884	n/a	MAZ_128.jpg	MAZ_128.jpg	MAX_39.jpg
347.13277101516724	1.936095952987671	shape	0.833730220795	1.0	0.8	344.1335289478302	347.06808495521545	349.0688669681549	349.0990710258484	350.0687868595124	n/a	circle.bmp	oval-vertical.bmp	oval-vertical.bmp
350.1658248901367	1.9028949737548828	shape	0.898493051529	1.0	0.8	n/a	n/a	352.0687198638916	352.09909296035767	353.068727016449	n/a	oval-horizontal.bmp	oval-horizontal.bmp	circle.bmp
353.1658368110657	1.902915000915528	shape	0.731828927994	1.0	0.8	n/a	n/a	355.0687518119812	355.0991349220276	356.0688099861145	n/a	oval-horizontal.bmp	oval-vertical.bmp	oval-vertical.bmp
356.1658239364624	1.9028780460357664	shape	0.798225879669	1.0	0.8	n/a	n/a	358.06870198249817	358.0992019176483	359.0688898563385	n/a	oval-horizontal.bmp	circle.bmp	circle.bmp
359.18256187438965	1.90289306640625	shape	0.766103029251	1.0	0.8	n/a	n/a	361.0854549407959	361.1159188747406	362.0855658054352	n/a	oval-horizontal.bmp	oval-horizontal.bmp	oval-vertical.bmp
362.199266910553	1.869421005249024	shape	0.732996940613	1.0	0.8	n/a	n/a	364.068687915802	364.0991458892822	365.06891679763794	n/a	circle.bmp	circle.bmp	oval-vertical.bmp
368.1493468284607	1.9360899925231927	face	0.900189876556	1.0	0.8	365.13725781440735	368.06822681427	370.0854368209839	370.115865945816	371.0854678153992	n/a	FFZ_18.jpg	FAZ_129.jpg	FAZ_129.jpg
371.2329759597778	1.8356499671936035	face	0.9991979599	1.0	0.8	n/a	n/a	373.0686259269714	373.09916400909424	374.0690009593964	n/a	20M_FE_O.jpg	24M_FE_O.jpg	24M_FE_O.jpg
374.1998188495636	1.8685450553894043	face	0.866044998169	1.0	0.8	n/a	n/a	376.068363904953	376.0992188453674	377.06885385513306	n/a	FAZ_23.jpg	FAX_25.jpg	FAX_25.jpg
377.2162590026856	1.8689489364624023	face	0.932624816895	1.0	0.8	n/a	n/a	379.085207939148	379.1161239147186	380.08566188812256	n/a	33M_FE_O.jpg	33M_FE_O.jpg	35M_FE_O.jpg
380.2328028678894	1.835633993148804	face	0.865811109543	1.0	0.8	n/a	n/a	382.0684368610382	382.0993599891663	383.0689599514008	n/a	01F_AN_O.jpg	01F_AN_O.jpg	02F_AN_O.jpg
383.1999638080597	1.868331193924007	face	0.966438055038	1.0	0.8	n/a	n/a	385.0682950019837	385.0995259284973	386.0690989494324	394.4691619873047	MFZ_132.jpg	MFZ_132.jpg	MFZ_120.jpg
