onset	duration	trial_type	response_time	accuracy_binarized	tr_seconds	cueStartTime	cueEndTime	trialEndTime	fixStartTime	fixEndTime	runEndTime	stimLeft	stimTop	stimRight
11.0608980656	1.9708898067000007	shape	n/a	0.0	0.8	8.02523207664	11.0161778927	13.0317878723	13.0365538597	14.0305640697	n/a	oval-horizontal.bmp	oval-horizontal.bmp	oval-vertical.bmp
14.1425340176	1.8887450695000003	shape	1.01660680771	0.0	0.8	n/a	n/a	16.0312790871	16.0352659225	17.0304830074	n/a	oval-horizontal.bmp	oval-vertical.bmp	oval-vertical.bmp
17.1279270649	1.902905941	shape	n/a	0.0	0.8	n/a	n/a	19.0308330059	19.0344820023	20.0305259228	n/a	circle.bmp	circle.bmp	oval-vertical.bmp
20.1291329861	1.9019000529999983	shape	0.786817073822	1.0	0.8	n/a	n/a	22.0310330391	22.0347080231	23.0302369595	n/a	circle.bmp	oval-vertical.bmp	oval-vertical.bmp
23.1279540062	1.9023840427	shape	0.719470024109	0.0	0.8	n/a	n/a	25.0303380489	25.0342080593	26.030354023	n/a	oval-horizontal.bmp	circle.bmp	circle.bmp
26.1262669563	1.9041860104	shape	0.903789043427	1.0	0.8	n/a	n/a	28.0304529667	28.0344810486	29.0297830105	n/a	oval-horizontal.bmp	oval-horizontal.bmp	circle.bmp
32.0853500366	1.9444289208	face	0.736721992493	0.0	0.8	29.1034140587	32.0288450718	34.0297789574	34.0343399048	35.0289340019	n/a	FAZ_23.jpg	FAZ_23.jpg	FAX_43.jpg
35.1626169682	1.8674011230000005	face	0.685936927795	1.0	0.8	n/a	n/a	37.0300180912	37.0338029861	38.0291700363	n/a	26M_FE_O.jpg	26M_FE_O.jpg	27M_FE_O.BMP
38.1483340263	1.879689931900004	face	1.12013888359	1.0	0.8	n/a	n/a	40.0280239582	40.0319030285	41.028523922	n/a	MFX_16.jpg	MFZ_50.jpg	MFZ_50.jpg
41.1774179935	1.8515000343999968	face	1.00278806686	1.0	0.8	n/a	n/a	43.0289180279	43.0325329304	44.0275800228	n/a	09F_AN_O.jpg	09F_AN_O.jpg	10F_AN_O.jpg
44.1607880592	1.8682498932000016	face	0.950731039047	1.0	0.8	n/a	n/a	46.0290379524	46.0327348709	47.0283920765	n/a	38M_AN_O.BMP	39M_AN_O.jpg	39M_AN_O.jpg
47.1453909874	1.882796049100001	face	1.28678607941	0.0	0.8	n/a	n/a	49.0281870365	49.0318729877	50.0272660255	n/a	FFZ_102.jpg	FFX_130.jpg	FFX_130.jpg
53.0659279823	1.9615030288999973	shape	0.552392959595	1.0	0.8	50.104352951	53.0275919437	55.0274310112	55.0319080353	56.0263409615	n/a	oval-horizontal.bmp	oval-vertical.bmp	oval-vertical.bmp
56.1275289059	1.8999161719999973	shape	0.836844921112	0.0	0.8	n/a	n/a	58.0274450779	58.0309889317	59.0260949135	n/a	circle.bmp	oval-vertical.bmp	oval-vertical.bmp
59.1250319481	1.901487111999998	shape	1.12121009827	1.0	0.8	n/a	n/a	61.0265190601	61.0300228596	62.0263409615	n/a	oval-horizontal.bmp	oval-horizontal.bmp	oval-vertical.bmp
62.125880003	1.899965047800002	shape	0.720753908157	1.0	0.8	n/a	n/a	64.0258450508	64.0297858715	65.0254890919	n/a	oval-horizontal.bmp	oval-horizontal.bmp	circle.bmp
65.1258869171	1.900526046799996	shape	1.35356712341	0.0	0.8	n/a	n/a	67.0264129639	67.0300340652	68.025660038	n/a	circle.bmp	circle.bmp	oval-vertical.bmp
68.1261210442	1.8995249270999888	shape	0.653548002243	1.0	0.8	n/a	n/a	70.0256459713	70.0292849541	71.0247449875	n/a	oval-horizontal.bmp	circle.bmp	circle.bmp
74.1154310703	1.9100468158999888	face	1.02003192902	1.0	0.8	71.1022400856	74.0248289108	76.0254778862	76.0304858685	77.0241219997	n/a	03F_FE_O.jpg	05F_FE_O.jpg	05F_FE_O.jpg
77.1442399025	1.88038897509999	face	1.48707103729	1.0	0.8	n/a	n/a	79.0246288776	79.0284340382	80.0242118835	n/a	FAZ_32.jpg	FAZ_32.jpg	FAX_45.jpg
80.1413710117	1.8828959465	face	0.836588859558	1.0	0.8	n/a	n/a	82.0242669582	82.0279450417	83.0235419273	n/a	MAZ_128.jpg	MAZ_101.jpg	MAZ_101.jpg
83.1683549881	1.855590105099992	face	1.21297097206	1.0	0.8	n/a	n/a	85.0239450932	85.0279219151	86.0229320526	n/a	11F_AN_O.jpg	11F_AN_O.jpg	12F_AN_O.jpg
86.1632120609	1.8604660034000065	face	1.42036819458	0.0	0.8	n/a	n/a	88.0236780643	88.0276389122	89.0221199989	n/a	26M_FE_O.jpg	33M_FE_O.jpg	33M_FE_O.jpg
89.1397209167	1.882986068799994	face	0.934907913208	1.0	0.8	n/a	n/a	91.0227069855	91.0262999535	92.0214030743	n/a	MFZ_132.jpg	MFZ_132.jpg	MFZ_120.jpg
95.0611748695	1.9613380433000032	shape	0.886286973953	1.0	0.8	92.0942430496	95.0215959549	97.0225129128	97.0269758701	98.0215470791	n/a	circle.bmp	oval-vertical.bmp	oval-vertical.bmp
98.1209149361	1.9004440309000048	shape	0.828885793686	1.0	0.8	n/a	n/a	100.021358967	100.025382042	101.020920992	n/a	oval-horizontal.bmp	oval-horizontal.bmp	circle.bmp
101.117788076	1.9030289650000043	shape	0.961403846741	0.0	0.8	n/a	n/a	103.020817041	103.024354935	104.020436049	n/a	oval-horizontal.bmp	oval-vertical.bmp	oval-vertical.bmp
104.11680007	1.9039809700000063	shape	0.727757930756	0.0	0.8	n/a	n/a	106.02078104	106.024333954	107.020384073	n/a	oval-horizontal.bmp	circle.bmp	circle.bmp
107.117713928	1.902763128999993	shape	0.62739109993	0.0	0.8	n/a	n/a	109.020477057	109.024307966	110.01995492	n/a	oval-horizontal.bmp	oval-horizontal.bmp	oval-vertical.bmp
110.117532015	1.9027590750000056	shape	0.76007604599	1.0	0.8	n/a	n/a	112.02029109	112.024224043	113.020392895	n/a	circle.bmp	circle.bmp	oval-vertical.bmp
116.072201967	1.9477810860000064	face	0.977020025253	1.0	0.8	113.094521046	116.019638062	118.019983053	118.024441957	119.019057035	n/a	FAZ_23.jpg	FAZ_23.jpg	FAX_43.jpg
119.148989916	1.8708450789999915	face	1.10876989365	1.0	0.8	n/a	n/a	121.019834995	121.02364707	122.019111872	n/a	26M_FE_O.jpg	26M_FE_O.jpg	27M_FE_O.BMP
122.135343075	1.8834948540000056	face	0.892874002457	1.0	0.8	n/a	n/a	124.018837929	124.022793055	125.018595934	n/a	MFZ_50.jpg	MFZ_50.jpg	MFX_16.jpg
125.161656857	1.857360123999996	face	0.586724042892	1.0	0.8	n/a	n/a	127.019016981	127.022542	128.018082857	n/a	10F_AN_O.jpg	09F_AN_O.jpg	09F_AN_O.jpg
128.144743919	1.8735971449999909	face	0.80767583847	1.0	0.8	n/a	n/a	130.018341064	130.02146101	131.017683983	n/a	38M_AN_O.BMP	39M_AN_O.jpg	39M_AN_O.jpg
131.136964083	1.8815047739999784	face	1.2046314477905	0.0	0.8	n/a	n/a	133.018468857	133.02208209	134.017662048	n/a	FFZ_102.jpg	FFX_130.jpg	FFX_130.jpg
137.070251942	1.963593959000008	shape	0.63783288002	1.0	0.8	134.09432888	137.03353405	139.033845901	139.038408041	140.033269882	n/a	oval-horizontal.bmp	oval-horizontal.bmp	oval-vertical.bmp
140.132116079	1.901929855999981	shape	0.990657091141	1.0	0.8	n/a	n/a	142.034045935	142.037837029	143.032906055	n/a	oval-horizontal.bmp	oval-vertical.bmp	oval-vertical.bmp
143.135536909	1.8978111739999968	shape	0.673080921173	1.0	0.8	n/a	n/a	145.033348083	145.036835909	146.03251195	n/a	circle.bmp	circle.bmp	oval-vertical.bmp
146.131804943	1.90117096900002	shape	0.8563035726545001	1.0	0.8	n/a	n/a	148.032975912	148.036549091	149.032130003	n/a	circle.bmp	oval-vertical.bmp	oval-vertical.bmp
149.131501913	1.9018089770000013	shape	0.55572104454	1.0	0.8	n/a	n/a	151.03331089	151.036834002	152.031867981	n/a	oval-horizontal.bmp	circle.bmp	circle.bmp
152.133789062	1.898293972999994	shape	1.0975770950335	0.0	0.8	n/a	n/a	154.032083035	154.035660028	155.03097105	n/a	oval-horizontal.bmp	oval-horizontal.bmp	circle.bmp
158.104135036	1.927786827999995	face	1.03935694695	1.0	0.8	155.108608007	158.031985044	160.031921864	160.036386967	161.030828953	n/a	20M_FE_O.jpg	21M_FE_O.jpg	21M_FE_O.jpg
161.177018881	1.854783057999981	face	1.05493092537	1.0	0.8	n/a	n/a	163.031801939	163.035333872	164.030492067	n/a	01F_AN_O.jpg	07F_AN_O.jpg	07F_AN_O.jpg
164.152612925	1.878131150999991	face	0.955217123032	1.0	0.8	n/a	n/a	166.030744076	166.034256935	167.030206919	n/a	FFX_139.jpg	FFZ_102.jpg	FFZ_102.jpg
167.17069602	1.8601138589999948	face	0.937210798264	1.0	0.8	n/a	n/a	169.030809879	169.034619093	170.030030966	n/a	23M_AN_O.jpg	23M_AN_O.jpg	22M_AN_O.jpg
170.146698952	1.8841319080000003	face	1.00303196907	1.0	0.8	n/a	n/a	172.03083086	172.034348011	173.029382944	n/a	MAZ_146.jpg	MAZ_146.jpg	MAX_233.jpg
173.17030406	1.8596258160000048	face	n/a	0.0	0.8	n/a	n/a	175.029929876	175.033544064	176.030116081	n/a	15F_FE_O.jpg	15F_FE_O.jpg	16F_FE_O.jpg
179.067007065	1.9632349009999928	shape	0.601198911667	1.0	0.8	176.12013793	179.029397011	181.030241966	181.034815073	182.028944016	n/a	oval-horizontal.bmp	oval-vertical.bmp	oval-vertical.bmp
182.14130497	1.8880870339999944	shape	0.704380989075	1.0	0.8	n/a	n/a	184.029392004	184.033493042	185.028271914	n/a	circle.bmp	oval-vertical.bmp	oval-vertical.bmp
185.135920048	1.8927550310000072	shape	0.720144033432	0.0	0.8	n/a	n/a	187.028675079	187.032284975	188.028138876	n/a	oval-horizontal.bmp	oval-horizontal.bmp	oval-vertical.bmp
188.139621019	1.888910055999986	shape	0.869942188263	1.0	0.8	n/a	n/a	190.028531075	190.032155991	191.028264999	n/a	oval-horizontal.bmp	oval-horizontal.bmp	circle.bmp
191.137650967	1.8906640999999809	shape	1.13350176811	1.0	0.8	n/a	n/a	193.028315067	193.031923056	194.027801991	n/a	circle.bmp	circle.bmp	oval-vertical.bmp
194.139695883	1.8884260650000044	shape	0.553689956665	1.0	0.8	n/a	n/a	196.028121948	196.03237009	197.027565956	n/a	oval-horizontal.bmp	circle.bmp	circle.bmp
200.082777977	1.9457850459999968	face	0.670987844467	1.0	0.8	197.113756895	200.026735067	202.028563023	202.033107042	203.026903868	n/a	FFX_54.jpg	FFX_54.jpg	FAX_51.jpg
203.167937994	1.859183072999997	face	0.970320940018	1.0	0.8	n/a	n/a	205.027121067	205.030797005	206.026784897	n/a	40M_FE_O.BMP	41M_FE_O.jpg	41M_FE_O.jpg
206.178772926	1.847955941999999	face	0.802075862885	1.0	0.8	n/a	n/a	208.026728868	208.030680895	209.025599003	n/a	29M_AN_O.jpg	29M_AN_O.jpg	28M_AN_O.jpg
209.153341055	1.872638940999991	face	0.732408046722	1.0	0.8	n/a	n/a	211.025979996	211.029840946	212.024801016	n/a	FFZ_18.jpg	FFZ_29.jpg	FFZ_29.jpg
212.177258015	1.848533868000004	face	1.00285601616	1.0	0.8	n/a	n/a	214.025791883	214.029373884	215.025090933	n/a	19F_AN_O.jpg	19F_AN_O.jpg	09F_AN_O.jpg
215.149935007	1.8755929470000008	face	1.71927690506	1.0	0.8	n/a	n/a	217.025527954	217.029083014	218.024518967	n/a	MFZ_132.jpg	MFZ_7.jpg	MFZ_7.jpg
221.061599016	1.9637510780000007	shape	0.632734060287	1.0	0.8	218.10878396	221.024168968	223.025350094	223.03008008	224.02382803	n/a	circle.bmp	oval-vertical.bmp	oval-vertical.bmp
224.131586075	1.8925659649999889	shape	0.720540046692	1.0	0.8	n/a	n/a	226.02415204	226.027706861	227.023967028	n/a	oval-horizontal.bmp	oval-horizontal.bmp	circle.bmp
227.130625963	1.8929779530000133	shape	0.688279867172	0.0	0.8	n/a	n/a	229.023603916	229.027265072	230.023535013	n/a	oval-horizontal.bmp	oval-vertical.bmp	oval-vertical.bmp
230.129440069	1.8937299250000024	shape	0.853522062302	1.0	0.8	n/a	n/a	232.023169994	232.027091026	233.023056984	n/a	oval-horizontal.bmp	circle.bmp	circle.bmp
233.128490925	1.8946399689999964	shape	0.819818973541	1.0	0.8	n/a	n/a	235.023130894	235.026653051	236.023032904	n/a	oval-horizontal.bmp	oval-horizontal.bmp	oval-vertical.bmp
236.13342309	1.889208793999984	shape	0.747723817825	1.0	0.8	n/a	n/a	238.022631884	238.026469946	239.022325039	n/a	circle.bmp	circle.bmp	oval-vertical.bmp
242.100100994	1.922564029999989	face	0.721419930458	1.0	0.8	239.10569191	242.022150993	244.022665024	244.027411938	245.021441936	n/a	20M_FE_O.jpg	21M_FE_O.jpg	21M_FE_O.jpg
245.180031061	1.8514130119999948	face	1.19679808617	1.0	0.8	n/a	n/a	247.031444073	247.035060883	248.026567936	n/a	07F_AN_O.jpg	07F_AN_O.jpg	01F_AN_O.jpg
248.153831959	1.867813109999986	face	0.912600040436	1.0	0.8	n/a	n/a	250.021645069	250.025409937	251.020737886	n/a	FFZ_102.jpg	FFZ_102.jpg	FFX_139.jpg
251.168133974	1.8536589150000111	face	0.796252965927	1.0	0.8	n/a	n/a	253.021792889	253.025553942	254.020684958	n/a	22M_AN_O.jpg	23M_AN_O.jpg	23M_AN_O.jpg
254.148510933	1.8716931339999967	face	1.01374816895	1.0	0.8	n/a	n/a	256.020204067	256.024106026	257.020055056	n/a	MAX_233.jpg	MAZ_146.jpg	MAZ_146.jpg
257.170300007	1.8505020140000283	face	1.111058592798	1.0	0.8	n/a	n/a	259.020802021	259.024376869	260.019047976	n/a	15F_FE_O.jpg	15F_FE_O.jpg	16F_FE_O.jpg
263.057873964	1.961911917000009	shape	0.766895055771	1.0	0.8	260.104665041	263.020070076	265.019785881	265.024568081	266.01929903	n/a	oval-horizontal.bmp	oval-horizontal.bmp	oval-vertical.bmp
266.12915206	1.890101908999952	shape	0.712028980255	1.0	0.8	n/a	n/a	268.019253969	268.023077011	269.018750906	n/a	oval-horizontal.bmp	oval-vertical.bmp	oval-vertical.bmp
269.129101992	1.8899340629999983	shape	0.694818019867	1.0	0.8	n/a	n/a	271.019036055	271.022619009	272.018526077	n/a	circle.bmp	circle.bmp	oval-vertical.bmp
272.129718065	1.888464927999962	shape	0.994220018387	1.0	0.8	n/a	n/a	274.018182993	274.021727085	275.018254042	n/a	circle.bmp	oval-vertical.bmp	oval-vertical.bmp
275.130338907	1.887968064000006	shape	0.660941839218	1.0	0.8	n/a	n/a	277.018306971	277.021919966	278.017668962	n/a	oval-horizontal.bmp	circle.bmp	circle.bmp
278.128129959	1.9060311320000096	shape	0.777195930481	1.0	0.8	n/a	n/a	280.034161091	280.037735939	281.017632008	n/a	oval-horizontal.bmp	oval-horizontal.bmp	circle.bmp
284.093219042	1.9416129589999969	face	0.586979150772	1.0	0.8	281.104820013	284.033729076	286.034832001	286.039282084	287.033546925	n/a	FFZ_18.jpg	FAZ_129.jpg	FAZ_129.jpg
287.19659996	1.837454080999976	face	1.12499690056	1.0	0.8	n/a	n/a	289.034054041	289.037618876	290.033396959	n/a	20M_FE_O.jpg	24M_FE_O.jpg	24M_FE_O.jpg
290.167420864	1.8661170010000203	face	n/a	0.0	0.8	n/a	n/a	292.033537865	292.037069082	293.033511877	n/a	FAZ_23.jpg	FAX_25.jpg	FAX_25.jpg
293.189981937	1.8431420329999924	face	1.3200609684	1.0	0.8	n/a	n/a	295.03312397	295.036642075	296.032536983	n/a	33M_FE_O.jpg	33M_FE_O.jpg	35M_FE_O.jpg
296.193881035	1.8396408560000168	face	1.10952496529	1.0	0.8	n/a	n/a	298.033521891	298.037338972	299.03212595	n/a	01F_AN_O.jpg	01F_AN_O.jpg	02F_AN_O.jpg
299.164433002	1.868067979999978	face	1.17395114899	1.0	0.8	n/a	n/a	301.032500982	301.036006927	302.031802893	n/a	MFZ_132.jpg	MFZ_132.jpg	MFZ_120.jpg
305.068697929	1.962893962999999	shape	0.841224908829	1.0	0.8	302.120398045	305.031414986	307.031591892	307.036103964	308.031288862	n/a	oval-horizontal.bmp	oval-vertical.bmp	oval-vertical.bmp
308.147196054	1.8841619500000208	shape	1.00724601746	1.0	0.8	n/a	n/a	310.031358004	310.034959078	311.030935049	n/a	circle.bmp	oval-vertical.bmp	oval-vertical.bmp
311.145787954	1.88560199799997	shape	0.820493936539	1.0	0.8	n/a	n/a	313.031389952	313.035199881	314.030597925	n/a	oval-horizontal.bmp	oval-horizontal.bmp	oval-vertical.bmp
314.14366889	1.8872110840000005	shape	0.557096004486	1.0	0.8	n/a	n/a	316.030879974	316.034448862	317.030001879	n/a	oval-horizontal.bmp	oval-horizontal.bmp	circle.bmp
317.141524076	1.8887269499999773	shape	0.622552871704	1.0	0.8	n/a	n/a	319.030251026	319.033866882	320.029763937	n/a	circle.bmp	circle.bmp	oval-vertical.bmp
320.14516902	1.8849439619999653	shape	0.872277021408	1.0	0.8	n/a	n/a	322.030112982	322.033648014	323.029408932	n/a	oval-horizontal.bmp	circle.bmp	circle.bmp
326.113396883	1.9159870149999847	face	n/a	0.0	0.8	323.119706869	326.02974987	328.029383898	328.033954859	329.028970003	n/a	17F_FE_O.jpg	18F_FE_O.jpg	18F_FE_O.jpg
329.180100918	1.8491880889999948	face	1.00258803368	1.0	0.8	n/a	n/a	331.029289007	331.032810926	332.028346062	n/a	42M_AN_O.jpg	43M_AN_O.jpg	43M_AN_O.jpg
332.180371046	1.8487219809999829	face	0.905543804169	1.0	0.8	n/a	n/a	334.029093027	334.032626867	335.028116941	n/a	31M_FE_O.jpg	31M_FE_O.jpg	32M_FE_O.jpg
335.158849955	1.8695969579999885	face	1.37136292458	0.0	0.8	n/a	n/a	337.028446913	337.031956911	338.028157949	n/a	FAZ_212.jpg	FFZ_236.jpg	FFZ_236.jpg
338.192972898	1.8351240160000089	face	1.33680820465	1.0	0.8	n/a	n/a	340.028096914	340.032288074	341.027539968	n/a	06F_FE_O.jpg	06F_FE_O.jpg	08F_FE_O.jpg
341.155572891	1.8727331160000065	face	1.32009005547	1.0	0.8	n/a	n/a	343.028306007	343.03186202	344.027592897	n/a	MAZ_128.jpg	MAZ_128.jpg	MAX_39.jpg
347.064559937	1.9629809850000013	shape	0.667490959167	1.0	0.8	344.119500875	347.027191877	349.027540922	349.031966925	350.026825905	n/a	circle.bmp	oval-vertical.bmp	oval-vertical.bmp
350.140420914	1.8868520259999848	shape	0.717678070068	1.0	0.8	n/a	n/a	352.02727294	352.031337976	353.026867867	n/a	oval-horizontal.bmp	oval-horizontal.bmp	circle.bmp
353.141391039	1.8853638170000409	shape	0.66937494278	0.0	0.8	n/a	n/a	355.026754856	355.030099869	356.025608063	n/a	oval-horizontal.bmp	oval-vertical.bmp	oval-vertical.bmp
356.140516043	1.8852698800000096	shape	1.3357770443	1.0	0.8	n/a	n/a	358.025785923	358.029371977	359.025331974	n/a	oval-horizontal.bmp	circle.bmp	circle.bmp
359.142148972	1.8835549350000065	shape	0.803632974625	1.0	0.8	n/a	n/a	361.025703907	361.029325962	362.025292873	n/a	oval-horizontal.bmp	oval-horizontal.bmp	oval-vertical.bmp
362.14091301	1.884330033999959	shape	1.22082304955	1.0	0.8	n/a	n/a	364.025243044	364.029174089	365.025264978	n/a	circle.bmp	circle.bmp	oval-vertical.bmp
368.078839064	1.946267842999987	face	0.700546979904	1.0	0.8	365.120938063	368.02421689	370.025106907	370.029485941	371.024506092	n/a	FFZ_18.jpg	FAZ_129.jpg	FAZ_129.jpg
371.184092999	1.8412859430000024	face	0.767768859863	1.0	0.8	n/a	n/a	373.025378942	373.028961897	374.023873091	n/a	20M_FE_O.jpg	24M_FE_O.jpg	24M_FE_O.jpg
374.158477068	1.8651700019999569	face	0.786401033401	1.0	0.8	n/a	n/a	376.02364707	376.027560949	377.023499012	n/a	FAZ_23.jpg	FAX_25.jpg	FAX_25.jpg
377.178051949	1.846112965999964	face	0.854037046432	1.0	0.8	n/a	n/a	379.024164915	379.027841091	380.02284193	n/a	33M_FE_O.jpg	33M_FE_O.jpg	35M_FE_O.jpg
380.18370986	1.8399422169999864	face	0.649923086166	1.0	0.8	n/a	n/a	382.023652077	382.027194977	383.02305007	n/a	01F_AN_O.jpg	01F_AN_O.jpg	02F_AN_O.jpg
383.157801867	1.8652482030000213	face	0.883837223053	1.0	0.8	n/a	n/a	385.02305007	385.02661705	386.022309065	394.421406031	MFZ_132.jpg	MFZ_132.jpg	MFZ_120.jpg
