onset	duration	trial_type	response_time	accuracy_binarized	tr_seconds	cueStartTime	cueEndTime	trialEndTime	fixStartTime	fixEndTime	runEndTime	stimLeft	stimTop	stimRight
11.0780220032	1.9614450931	shape	0.864253997803	1.0	0.8	8.03324699402	11.0228071213	13.0394670963	13.0552041531	14.0387270451	n/a	oval-horizontal.bmp	oval-horizontal.bmp	oval-vertical.bmp
14.1559481621	1.882614851	shape	0.928910017014	1.0	0.8	n/a	n/a	16.0385630131	16.0550980568	17.0377850533	n/a	oval-horizontal.bmp	oval-vertical.bmp	oval-vertical.bmp
17.1487159729	1.8882961272999983	shape	0.693063020706	1.0	0.8	n/a	n/a	19.0370121002	19.0543391705	20.0368480682	n/a	circle.bmp	circle.bmp	oval-vertical.bmp
20.1498801708	1.8834547997000008	shape	0.586314916611	1.0	0.8	n/a	n/a	22.0333349705	22.0505330563	23.033506155	n/a	circle.bmp	oval-vertical.bmp	oval-vertical.bmp
23.1513831615	1.8849608899000003	shape	0.671491861343	1.0	0.8	n/a	n/a	25.0363440514	25.052106142	26.0346181393	n/a	oval-horizontal.bmp	circle.bmp	circle.bmp
26.1530480385	1.8818099498999992	shape	0.569865942001	1.0	0.8	n/a	n/a	28.0348579884	28.0516791344	29.0338380337	n/a	oval-horizontal.bmp	oval-horizontal.bmp	circle.bmp
32.1008250713	1.9314539432999995	face	0.96985411644	1.0	0.8	29.1110701561	32.0329470634	34.0322790146	34.0493681431	35.0325109959	n/a	FAZ_23.jpg	FAZ_23.jpg	FAX_43.jpg
35.1821460724	1.8497450352000016	face	0.827102899551	1.0	0.8	n/a	n/a	37.0318911076	37.0477590561	38.0315010548	n/a	26M_FE_O.jpg	26M_FE_O.jpg	27M_FE_O.BMP
38.158162117	1.873340845099996	face	0.775524139404	1.0	0.8	n/a	n/a	40.0315029621	40.0474960804	41.0302121639	n/a	MFX_16.jpg	MFZ_50.jpg	MFZ_50.jpg
41.1935911179	1.8338479995000008	face	0.669255971909	1.0	0.8	n/a	n/a	43.0274391174	43.0438489914	44.0270531178	n/a	09F_AN_O.jpg	09F_AN_O.jpg	10F_AN_O.jpg
44.1792969704	1.8494520186999992	face	0.654638051987	1.0	0.8	n/a	n/a	46.0287489891	46.0462691784	47.0287640095	n/a	38M_AN_O.BMP	39M_AN_O.jpg	39M_AN_O.jpg
47.1626260281	1.865822076800001	face	0.985691785812	1.0	0.8	n/a	n/a	49.0284481049	49.0443999767	50.0280170441	n/a	FFZ_102.jpg	FFX_130.jpg	FFX_130.jpg
53.0778989792	1.948547124800001	shape	0.702605962753	1.0	0.8	50.1054019928	53.0261871815	55.026446104	55.0420751572	56.025698185	n/a	oval-horizontal.bmp	oval-vertical.bmp	oval-vertical.bmp
56.1348531246	1.889772892000004	shape	0.679010868073	1.0	0.8	n/a	n/a	58.0246260166	58.0419261456	59.0247189999	n/a	circle.bmp	oval-vertical.bmp	oval-vertical.bmp
59.1357321739	1.888438940099995	shape	0.525526046753	1.0	0.8	n/a	n/a	61.024171114	61.0412249565	62.0238189697	n/a	oval-horizontal.bmp	oval-horizontal.bmp	oval-vertical.bmp
62.137665987	1.900557994900005	shape	0.683689832687	1.0	0.8	n/a	n/a	64.0382239819	64.0542149544	65.022947073	n/a	oval-horizontal.bmp	oval-horizontal.bmp	circle.bmp
65.1392650604	1.8836259841999947	shape	0.5882999897	1.0	0.8	n/a	n/a	67.0228910446	67.03967309	68.0226011276	n/a	circle.bmp	circle.bmp	oval-vertical.bmp
68.1406080723	1.897928953200008	shape	0.603281974792	1.0	0.8	n/a	n/a	70.0385370255	70.0555160046	71.0372860432	n/a	oval-horizontal.bmp	circle.bmp	circle.bmp
74.1262331009	1.9108529091000008	face	1.06523299217	1.0	0.8	71.1156830788	74.036864996	76.03708601	76.0531799793	77.0359921455	n/a	03F_FE_O.jpg	05F_FE_O.jpg	05F_FE_O.jpg
77.1696951389	1.866348981900004	face	0.675909042358	1.0	0.8	n/a	n/a	79.0360441208	79.0522351265	80.0343391895	n/a	FAZ_32.jpg	FAZ_32.jpg	FAX_45.jpg
80.1629321575	1.8712618351000003	face	1.27471494675	1.0	0.8	n/a	n/a	82.0341939926	82.0514600277	83.0343911648	n/a	MAZ_128.jpg	MAZ_101.jpg	MAZ_101.jpg
83.1995110512	1.8317160606000016	face	0.986117839813	1.0	0.8	n/a	n/a	85.0312271118	85.0478081703	86.0337250233	n/a	11F_AN_O.jpg	11F_AN_O.jpg	12F_AN_O.jpg
86.183920145	1.8490958213999988	face	1.05461883545	1.0	0.8	n/a	n/a	88.0330159664	88.0501129627	89.0327379704	n/a	26M_FE_O.jpg	33M_FE_O.jpg	33M_FE_O.jpg
89.1670739651	1.865379095099996	face	0.918495178223	1.0	0.8	n/a	n/a	91.0324530602	91.048055172	92.0306639671	n/a	MFZ_132.jpg	MFZ_132.jpg	MFZ_120.jpg
95.081567049	1.947983980199993	shape	0.653271913528	1.0	0.8	92.1120920181	95.0305199623	97.0295510292	97.0464780331	98.0293929577	n/a	circle.bmp	oval-vertical.bmp	oval-vertical.bmp
98.1381790638	1.891444921200005	shape	0.660894155502	1.0	0.8	n/a	n/a	100.029623985	100.046022177	101.028544188	n/a	oval-horizontal.bmp	oval-horizontal.bmp	circle.bmp
101.140483141	1.888120889999996	shape	0.592081069946	1.0	0.8	n/a	n/a	103.028604031	103.044533014	104.02718997	n/a	oval-horizontal.bmp	oval-vertical.bmp	oval-vertical.bmp
104.141942978	1.8827970029999928	shape	0.6705930233	1.0	0.8	n/a	n/a	106.024739981	106.042135954	107.0271101	n/a	oval-horizontal.bmp	circle.bmp	circle.bmp
107.142856121	1.883928061000006	shape	0.48695397377	1.0	0.8	n/a	n/a	109.026784182	109.043359995	110.026278019	n/a	oval-horizontal.bmp	oval-horizontal.bmp	oval-vertical.bmp
110.143378973	1.882168055000008	shape	0.702692985535	1.0	0.8	n/a	n/a	112.025547028	112.042863131	113.024379969	n/a	circle.bmp	circle.bmp	oval-vertical.bmp
116.091102123	1.932446002999996	face	0.969069957733	1.0	0.8	113.112648964	116.024019957	118.023548126	118.040269136	119.022886038	n/a	FAZ_23.jpg	FAZ_23.jpg	FAX_43.jpg
119.166226149	1.856614828000005	face	0.775246858597	1.0	0.8	n/a	n/a	121.022840977	121.039005041	122.038652182	n/a	26M_FE_O.jpg	26M_FE_O.jpg	27M_FE_O.BMP
122.17308116	1.865149021000008	face	0.771276950836	1.0	0.8	n/a	n/a	124.038230181	124.054536104	125.038221121	n/a	MFZ_50.jpg	MFZ_50.jpg	MFX_16.jpg
125.202193975	1.834015131000001	face	1.01982498169	1.0	0.8	n/a	n/a	127.036209106	127.052760124	128.037312984	n/a	10F_AN_O.jpg	09F_AN_O.jpg	09F_AN_O.jpg
128.186522961	1.8508360379999829	face	0.753843069077	1.0	0.8	n/a	n/a	130.037358999	130.053250074	131.037001133	n/a	38M_AN_O.BMP	39M_AN_O.jpg	39M_AN_O.jpg
131.171069145	1.8645489220000115	face	0.768626928329	1.0	0.8	n/a	n/a	133.035618067	133.052731991	134.035127163	n/a	FFZ_102.jpg	FFX_130.jpg	FFX_130.jpg
137.085138083	1.9495558730000084	shape	1.21990299225	1.0	0.8	134.119487047	137.034101963	139.034693956	139.050675154	140.032953024	n/a	oval-horizontal.bmp	oval-horizontal.bmp	oval-vertical.bmp
140.150566101	1.8825340269999915	shape	1.07681298256	1.0	0.8	n/a	n/a	142.033100128	142.049378157	143.032493114	n/a	oval-horizontal.bmp	oval-vertical.bmp	oval-vertical.bmp
143.149410009	1.8823721409999905	shape	0.658617019653	1.0	0.8	n/a	n/a	145.03178215	145.048734188	146.031545162	n/a	circle.bmp	circle.bmp	oval-vertical.bmp
146.148796082	1.8806910510000137	shape	0.667475938797	1.0	0.8	n/a	n/a	148.029487133	148.045724154	149.031121016	n/a	circle.bmp	oval-vertical.bmp	oval-vertical.bmp
149.14675808	1.883912085999981	shape	0.704898118973	1.0	0.8	n/a	n/a	151.030670166	151.047409058	152.029886961	n/a	oval-horizontal.bmp	circle.bmp	circle.bmp
152.14725709	1.882209061999987	shape	0.533032894135	1.0	0.8	n/a	n/a	154.029466152	154.04639101	155.028954983	n/a	oval-horizontal.bmp	oval-horizontal.bmp	circle.bmp
158.11888504	1.9088039399999843	face	1.69599294662	1.0	0.8	155.116178989	158.027770996	160.02768898	160.043491125	161.026069164	n/a	20M_FE_O.jpg	21M_FE_O.jpg	21M_FE_O.jpg
161.185614109	1.841287851000004	face	0.743493080139	1.0	0.8	n/a	n/a	163.02690196	163.043179989	164.025562048	n/a	01F_AN_O.jpg	07F_AN_O.jpg	07F_AN_O.jpg
164.160175085	1.877700090000019	face	0.790693044662	1.0	0.8	n/a	n/a	166.037875175	166.054635048	167.038161993	n/a	FFX_139.jpg	FFZ_102.jpg	FFZ_102.jpg
167.192845106	1.831837893	face	1.33914685249	1.0	0.8	n/a	n/a	169.024682999	169.041726112	170.024962187	n/a	23M_AN_O.jpg	23M_AN_O.jpg	22M_AN_O.jpg
170.174860954	1.849153042000012	face	0.651278972626	1.0	0.8	n/a	n/a	172.024013996	172.040208101	173.023686171	n/a	MAZ_146.jpg	MAZ_146.jpg	MAX_233.jpg
173.190732002	1.849109172999988	face	0.952545166016	1.0	0.8	n/a	n/a	175.039841175	175.055852175	176.039169073	n/a	15F_FE_O.jpg	15F_FE_O.jpg	16F_FE_O.jpg
179.090474129	1.9471068379999965	shape	0.66978096962	1.0	0.8	176.130563974	179.037711143	181.037580967	181.053580046	182.037054062	n/a	oval-horizontal.bmp	oval-vertical.bmp	oval-vertical.bmp
182.153781176	1.882535934000004	shape	0.593888998032	1.0	0.8	n/a	n/a	184.03631711	184.052716017	185.036244154	n/a	circle.bmp	oval-vertical.bmp	oval-vertical.bmp
185.153486013	1.882331133000008	shape	0.590692996979	1.0	0.8	n/a	n/a	187.035817146	187.051968098	188.031322956	n/a	oval-horizontal.bmp	oval-horizontal.bmp	oval-vertical.bmp
188.149978161	1.885205983999981	shape	0.63791012764	1.0	0.8	n/a	n/a	190.035184145	190.051778078	191.034365177	n/a	oval-horizontal.bmp	oval-horizontal.bmp	circle.bmp
191.151985168	1.8826599129999977	shape	0.75353717804	1.0	0.8	n/a	n/a	193.034645081	193.051560163	194.034137011	n/a	circle.bmp	circle.bmp	oval-vertical.bmp
194.151610136	1.8809280400000148	shape	0.651328802109	1.0	0.8	n/a	n/a	196.032538176	196.049894094	197.03274703	n/a	oval-horizontal.bmp	circle.bmp	circle.bmp
200.09903717	1.9326679710000008	face	0.735527038574	1.0	0.8	197.122224092	200.031551123	202.031705141	202.047557116	203.03020215	n/a	FFX_54.jpg	FFX_54.jpg	FAX_51.jpg
203.181024075	1.8494429579999967	face	0.810672998428	1.0	0.8	n/a	n/a	205.030467033	205.046965122	206.029615164	n/a	40M_FE_O.BMP	41M_FE_O.jpg	41M_FE_O.jpg
206.191797972	1.8374631400000112	face	0.840609073639	1.0	0.8	n/a	n/a	208.029261112	208.046064138	209.026414156	n/a	29M_AN_O.jpg	29M_AN_O.jpg	28M_AN_O.jpg
209.1635921	1.8652329450000025	face	0.737035036087	1.0	0.8	n/a	n/a	211.028825045	211.044891119	212.028340101	n/a	FFZ_18.jpg	FFZ_29.jpg	FFZ_29.jpg
212.194681168	1.8335080140000173	face	0.869848012924	1.0	0.8	n/a	n/a	214.028189182	214.044682026	215.027058125	n/a	19F_AN_O.jpg	19F_AN_O.jpg	09F_AN_O.jpg
215.180829048	1.8461101059999976	face	0.884789943695	1.0	0.8	n/a	n/a	217.026939154	217.043495178	218.02594018	n/a	MFZ_132.jpg	MFZ_7.jpg	MFZ_7.jpg
221.076379061	1.948146104999978	shape	0.999960899353	1.0	0.8	218.11610198	221.02434516	223.024525166	223.041437149	224.024069071	n/a	circle.bmp	oval-vertical.bmp	oval-vertical.bmp
224.150748014	1.873389006000025	shape	0.543595075607	1.0	0.8	n/a	n/a	226.02413702	226.04085803	227.022770166	n/a	oval-horizontal.bmp	oval-horizontal.bmp	circle.bmp
227.152096987	1.8707871430000007	shape	0.673579931259	1.0	0.8	n/a	n/a	229.02288413	229.039806128	230.035915136	n/a	oval-horizontal.bmp	oval-vertical.bmp	oval-vertical.bmp
230.153928995	1.885189056999991	shape	0.635973930359	1.0	0.8	n/a	n/a	232.039118052	232.056003094	233.038557053	n/a	oval-horizontal.bmp	circle.bmp	circle.bmp
233.171966076	1.8653280730000008	shape	0.536834001541	1.0	0.8	n/a	n/a	235.037294149	235.054651022	236.038063049	n/a	oval-horizontal.bmp	oval-horizontal.bmp	oval-vertical.bmp
236.172007084	1.8648209570000065	shape	0.549927949905	1.0	0.8	n/a	n/a	238.036828041	238.052633047	239.035644054	n/a	circle.bmp	circle.bmp	oval-vertical.bmp
242.119850159	1.9152359959999783	face	1.23412108421	1.0	0.8	239.126762152	242.035179138	244.035086155	244.051788092	245.03422904	n/a	20M_FE_O.jpg	21M_FE_O.jpg	21M_FE_O.jpg
245.202224016	1.8323800569999944	face	0.792768001556	1.0	0.8	n/a	n/a	247.034604073	247.050695181	248.032940149	n/a	07F_AN_O.jpg	07F_AN_O.jpg	01F_AN_O.jpg
248.180160999	1.8498790269999856	face	0.802988052368	1.0	0.8	n/a	n/a	250.030040026	250.046215057	251.029867172	n/a	FFZ_102.jpg	FFZ_102.jpg	FFX_139.jpg
251.199346066	1.833345890000004	face	1.07173109055	1.0	0.8	n/a	n/a	253.032691956	253.048654079	254.031999111	n/a	22M_AN_O.jpg	23M_AN_O.jpg	23M_AN_O.jpg
254.182029009	1.849732160000002	face	0.819940090179	1.0	0.8	n/a	n/a	256.031761169	256.048475981	257.031133175	n/a	MAX_233.jpg	MAZ_146.jpg	MAZ_146.jpg
257.198016167	1.8327579500000293	face	1.35246801376	1.0	0.8	n/a	n/a	259.030774117	259.046983957	260.02956605	n/a	15F_FE_O.jpg	15F_FE_O.jpg	16F_FE_O.jpg
263.079012156	1.9502618310000344	shape	0.94523191452	1.0	0.8	260.123712063	263.028727055	265.029273987	265.044944048	266.027259111	n/a	oval-horizontal.bmp	oval-horizontal.bmp	oval-vertical.bmp
266.155158043	1.872359037000024	shape	0.658407926559	1.0	0.8	n/a	n/a	268.02751708	268.043512106	269.026796103	n/a	oval-horizontal.bmp	oval-vertical.bmp	oval-vertical.bmp
269.156869173	1.866618872000004	shape	0.602871894836	1.0	0.8	n/a	n/a	271.023488045	271.040529013	272.024275064	n/a	circle.bmp	circle.bmp	oval-vertical.bmp
272.158750057	1.8672139649999624	shape	0.721547842026	1.0	0.8	n/a	n/a	274.025964022	274.042939186	275.025779963	n/a	circle.bmp	oval-vertical.bmp	oval-vertical.bmp
275.159453154	1.8661448949999908	shape	0.753059864044	1.0	0.8	n/a	n/a	277.025598049	277.042257071	278.024881124	n/a	oval-horizontal.bmp	circle.bmp	circle.bmp
278.158195972	1.865529061000018	shape	0.602644920349	1.0	0.8	n/a	n/a	280.023725033	280.039806128	281.023257971	n/a	oval-horizontal.bmp	oval-horizontal.bmp	circle.bmp
284.106474161	1.9323079590000127	face	0.810100078583	1.0	0.8	281.118834019	284.038371086	286.03878212	286.055207968	287.038052082	n/a	FFZ_18.jpg	FAZ_129.jpg	FAZ_129.jpg
287.205715179	1.831949950000024	face	1.09048318863	1.0	0.8	n/a	n/a	289.037665129	289.054625034	290.03740716	n/a	20M_FE_O.jpg	24M_FE_O.jpg	24M_FE_O.jpg
290.183550119	1.85081386600001	face	0.669281959534	1.0	0.8	n/a	n/a	292.034363985	292.050721169	293.034634113	n/a	FAZ_23.jpg	FAX_25.jpg	FAX_25.jpg
293.201696157	1.8340609079999688	face	0.788967132568	1.0	0.8	n/a	n/a	295.035757065	295.052999973	296.035876989	n/a	33M_FE_O.jpg	33M_FE_O.jpg	35M_FE_O.jpg
296.220436096	1.8150498869999865	face	1.63560605049	1.0	0.8	n/a	n/a	298.035485983	298.051511049	299.035014153	n/a	01F_AN_O.jpg	01F_AN_O.jpg	02F_AN_O.jpg
299.185177088	1.849207878000016	face	0.670523881912	1.0	0.8	n/a	n/a	301.034384966	301.050348997	302.033584118	n/a	MFZ_132.jpg	MFZ_132.jpg	MFZ_120.jpg
305.083570004	1.9485471239999583	shape	0.54367017746	1.0	0.8	302.13111496	305.032999039	307.032117128	307.048909187	308.031238079	n/a	oval-horizontal.bmp	oval-vertical.bmp	oval-vertical.bmp
308.159617186	1.8719489570000287	shape	0.509478092194	1.0	0.8	n/a	n/a	310.031566143	310.047600985	311.030869007	n/a	circle.bmp	oval-vertical.bmp	oval-vertical.bmp
311.161009073	1.8672189719999888	shape	0.486714839935	1.0	0.8	n/a	n/a	313.028228045	313.04482913	314.027043104	n/a	oval-horizontal.bmp	oval-horizontal.bmp	oval-vertical.bmp
314.161484957	1.868589162999968	shape	0.554656982422	1.0	0.8	n/a	n/a	316.03007412	316.046878099	317.029752016	n/a	oval-horizontal.bmp	oval-horizontal.bmp	circle.bmp
317.163459063	1.8650829790000216	shape	0.569010972977	1.0	0.8	n/a	n/a	319.028542042	319.045695066	320.027942181	n/a	circle.bmp	circle.bmp	oval-vertical.bmp
320.162708044	1.8652520179999783	shape	0.685940027237	1.0	0.8	n/a	n/a	322.027960062	322.04394412	323.026277065	n/a	oval-horizontal.bmp	circle.bmp	circle.bmp
326.118257999	1.908200980000004	face	1.40888309479	1.0	0.8	323.124155045	326.025910139	328.026458979	328.041838169	329.025434017	n/a	17F_FE_O.jpg	18F_FE_O.jpg	18F_FE_O.jpg
329.192532063	1.832005023000022	face	0.726328134537	1.0	0.8	n/a	n/a	331.024537086	331.040740013	332.024237156	n/a	42M_AN_O.jpg	43M_AN_O.jpg	43M_AN_O.jpg
332.204270124	1.833572865000008	face	0.853268861771	1.0	0.8	n/a	n/a	334.037842989	334.053848982	335.023890972	n/a	31M_FE_O.jpg	31M_FE_O.jpg	32M_FE_O.jpg
335.173305988	1.8507120610000245	face	0.770704984665	1.0	0.8	n/a	n/a	337.024018049	337.040307999	338.022776127	n/a	FAZ_212.jpg	FFZ_236.jpg	FFZ_236.jpg
338.206969976	1.8326280120000435	face	0.717846870422	1.0	0.8	n/a	n/a	340.039597988	340.055423975	341.022399187	n/a	06F_FE_O.jpg	06F_FE_O.jpg	08F_FE_O.jpg
341.172511101	1.865532874999985	face	0.801908016205	1.0	0.8	n/a	n/a	343.038043976	343.054727077	344.037153959	n/a	MAZ_128.jpg	MAZ_128.jpg	MAX_39.jpg
347.087870121	1.9478600030000168	shape	0.590749979019	1.0	0.8	344.137650967	347.03640914	349.035730124	349.052567005	350.034867048	n/a	circle.bmp	oval-vertical.bmp	oval-vertical.bmp
350.162746191	1.8716239930000145	shape	0.675153017044	1.0	0.8	n/a	n/a	352.034370184	352.051548958	353.034495115	n/a	oval-horizontal.bmp	oval-horizontal.bmp	circle.bmp
353.164469957	1.8674740790000328	shape	0.552649974823	1.0	0.8	n/a	n/a	355.031944036	355.047748089	356.034114122	n/a	oval-horizontal.bmp	oval-vertical.bmp	oval-vertical.bmp
356.166320086	1.866959095000027	shape	0.653672933578	1.0	0.8	n/a	n/a	358.033279181	358.049620152	359.033329964	n/a	oval-horizontal.bmp	circle.bmp	circle.bmp
359.167683125	1.8652789590000225	shape	0.601260185242	1.0	0.8	n/a	n/a	361.032962084	361.048804045	362.031924963	n/a	oval-horizontal.bmp	oval-horizontal.bmp	oval-vertical.bmp
362.165941	1.8655471800000207	shape	0.653082847595	1.0	0.8	n/a	n/a	364.03148818	364.047973156	365.030634165	n/a	circle.bmp	circle.bmp	oval-vertical.bmp
368.097690105	1.9314889909999808	face	0.608355045319	1.0	0.8	365.13075614	368.029829979	370.029179096	370.045883179	371.02899313	n/a	FFZ_18.jpg	FAZ_129.jpg	FAZ_129.jpg
371.246700048	1.7822070130000045	face	1.05879187584	1.0	0.8	n/a	n/a	373.028907061	373.045560122	374.028241158	n/a	20M_FE_O.jpg	24M_FE_O.jpg	24M_FE_O.jpg
374.174728155	1.850870848	face	0.61943602562	1.0	0.8	n/a	n/a	376.025599003	376.04270196	377.027147055	n/a	FAZ_23.jpg	FAX_25.jpg	FAX_25.jpg
377.210456133	1.8168890480000075	face	0.752148151398	1.0	0.8	n/a	n/a	379.027345181	379.044237137	380.02612114	n/a	33M_FE_O.jpg	33M_FE_O.jpg	35M_FE_O.jpg
380.211104155	1.8145070070000315	face	0.64995098114	1.0	0.8	n/a	n/a	382.025611162	382.042595148	383.024657011	n/a	01F_AN_O.jpg	01F_AN_O.jpg	02F_AN_O.jpg
383.176987171	1.848141908999992	face	0.787349939346	1.0	0.8	n/a	n/a	385.02512908	385.040941	386.024677992	394.438547134	MFZ_132.jpg	MFZ_132.jpg	MFZ_120.jpg
