onset	duration	trial_type	response_time	accuracy_binarized	tr_seconds	cueStartTime	cueEndTime	trialEndTime	fixStartTime	fixEndTime	runEndTime	stimLeft	stimTop	stimRight
11.0900659561	1.9502758979999992	shape	0.869757175446	1.0	0.8	8.03657698631	11.027037859	13.0403418541	13.0569748878	14.0427539349	n/a	oval-horizontal.bmp	oval-horizontal.bmp	oval-vertical.bmp
14.1750628948	1.866341114099999	shape	0.937614917755	1.0	0.8	n/a	n/a	16.0414040089	16.058123827	17.0418608189	n/a	oval-horizontal.bmp	oval-vertical.bmp	oval-vertical.bmp
17.1598758698	1.8814480303999976	shape	0.902678012848	1.0	0.8	n/a	n/a	19.0413239002	19.0574989319	20.0400168896	n/a	circle.bmp	circle.bmp	oval-vertical.bmp
20.1581268311	1.8818759918000008	shape	0.802546977997	1.0	0.8	n/a	n/a	22.0400028229	22.0566239357	23.0393760204	n/a	circle.bmp	oval-vertical.bmp	oval-vertical.bmp
23.1569418907	1.8820431233000008	shape	0.783196926117	1.0	0.8	n/a	n/a	25.038985014	25.0559458733	26.0387508869	n/a	oval-horizontal.bmp	circle.bmp	circle.bmp
26.1477060318	1.8899588585000016	shape	0.807986021042	1.0	0.8	n/a	n/a	28.0376648903	28.0544519424	29.0378088951	n/a	oval-horizontal.bmp	oval-horizontal.bmp	circle.bmp
32.1183338165	1.915890216900003	face	0.671163082123	1.0	0.8	29.1259918213	32.0364148617	34.0342240334	34.0515739918	35.0366609097	n/a	FAZ_23.jpg	FAZ_23.jpg	FAX_43.jpg
35.2048199177	1.830988884	face	0.737757921219	1.0	0.8	n/a	n/a	37.0358088017	37.0528419018	38.034722805	n/a	26M_FE_O.jpg	26M_FE_O.jpg	27M_FE_O.BMP
38.1869158745	1.8487069606999995	face	0.701045036316	1.0	0.8	n/a	n/a	40.0356228352	40.0508108139	41.0348198414	n/a	MFX_16.jpg	MFZ_50.jpg	MFZ_50.jpg
41.20134902	1.8327817917000004	face	0.736598968506	1.0	0.8	n/a	n/a	43.0341308117	43.0502870083	44.0330438614	n/a	09F_AN_O.jpg	09F_AN_O.jpg	10F_AN_O.jpg
44.2012588978	1.831991910899994	face	0.770302057266	1.0	0.8	n/a	n/a	46.0332508087	46.049407959	47.0323898792	n/a	38M_AN_O.BMP	39M_AN_O.jpg	39M_AN_O.jpg
47.1831769943	1.848408937500004	face	0.794294118881	1.0	0.8	n/a	n/a	49.0315859318	49.048899889	50.0313408375	n/a	FFZ_102.jpg	FFX_130.jpg	FFX_130.jpg
53.0785048008	1.9509701729	shape	0.802660942078	1.0	0.8	50.1157269478	53.0308899879	55.0294749737	55.0450658798	56.0469968319	n/a	oval-horizontal.bmp	oval-vertical.bmp	oval-vertical.bmp
56.1800739765	1.8666629790999991	shape	0.771197795868	1.0	0.8	n/a	n/a	58.0467369556	58.0630970001	59.0462329388	n/a	circle.bmp	oval-vertical.bmp	oval-vertical.bmp
59.1655080318	1.8801808357999967	shape	0.769364118576	1.0	0.8	n/a	n/a	61.0456888676	61.0613310337	62.0451998711	n/a	oval-horizontal.bmp	oval-horizontal.bmp	oval-vertical.bmp
62.16639781	1.8776230812000063	shape	0.732341766357	1.0	0.8	n/a	n/a	64.0440208912	64.0611829758	65.043861866	n/a	oval-horizontal.bmp	oval-horizontal.bmp	circle.bmp
65.1670958996	1.8762700558000065	shape	0.679692029953	1.0	0.8	n/a	n/a	67.0433659554	67.0594098568	68.0428578854	n/a	circle.bmp	circle.bmp	oval-vertical.bmp
68.1690568924	1.8737781048000104	shape	0.743931055069	1.0	0.8	n/a	n/a	70.0428349972	70.0592648983	71.0421288013	n/a	oval-horizontal.bmp	circle.bmp	circle.bmp
74.1393768787	1.9023749829	face	0.68618106842	0.0	0.8	71.1337988377	74.041574955	76.0417518616	76.0580399036	77.0405619144	n/a	03F_FE_O.jpg	05F_FE_O.jpg	05F_FE_O.jpg
77.1920948029	1.8489789962000032	face	0.633941888809	1.0	0.8	n/a	n/a	79.0410737991	79.0564370155	80.0400378704	n/a	FAZ_32.jpg	FAZ_32.jpg	FAX_45.jpg
80.1902019978	1.8491759300000008	face	0.736100196838	1.0	0.8	n/a	n/a	82.0393779278	82.0564789772	83.0382099152	n/a	MAZ_128.jpg	MAZ_101.jpg	MAZ_101.jpg
83.2241888046	1.8139941693000023	face	0.672860145569	1.0	0.8	n/a	n/a	85.0381829739	85.0546898842	86.0375418663	n/a	11F_AN_O.jpg	11F_AN_O.jpg	12F_AN_O.jpg
86.2050008774	1.8325610161000008	face	0.777382850647	1.0	0.8	n/a	n/a	88.0375618935	88.053704977	89.036990881	n/a	26M_FE_O.jpg	33M_FE_O.jpg	33M_FE_O.jpg
89.1797528267	1.8570799827	face	0.709917783737	1.0	0.8	n/a	n/a	91.0368328094	91.0524809361	92.0362160206	n/a	MFZ_132.jpg	MFZ_132.jpg	MFZ_120.jpg
95.0834329128	1.9500041007999869	shape	0.936670064926	1.0	0.8	92.1323139668	95.0348420143	97.0334370136	97.0496339798	98.0339539051	n/a	circle.bmp	oval-vertical.bmp	oval-vertical.bmp
98.1682329178	1.8665130142000093	shape	0.70348906517	1.0	0.8	n/a	n/a	100.034745932	100.051003933	101.033913851	n/a	oval-horizontal.bmp	oval-horizontal.bmp	circle.bmp
101.167826891	1.8653769489999945	shape	0.803241968155	1.0	0.8	n/a	n/a	103.03320384	103.049299002	104.032034874	n/a	oval-horizontal.bmp	oval-vertical.bmp	oval-vertical.bmp
104.167001963	1.8655018799999965	shape	1.00267601013	1.0	0.8	n/a	n/a	106.032503843	106.048888922	107.030843973	n/a	oval-horizontal.bmp	circle.bmp	circle.bmp
107.156642914	1.874403000000001	shape	0.614418983459	1.0	0.8	n/a	n/a	109.031045914	109.047375917	110.030673981	n/a	oval-horizontal.bmp	oval-horizontal.bmp	oval-vertical.bmp
110.157855988	1.8728089330000013	shape	1.21053385735	1.0	0.8	n/a	n/a	112.030664921	112.046559811	113.030321836	n/a	circle.bmp	circle.bmp	oval-vertical.bmp
116.11062789	1.9351029389999888	face	0.637048959732	1.0	0.8	113.123421907	116.046061993	118.045730829	118.062734842	119.045073032	n/a	FAZ_23.jpg	FAZ_23.jpg	FAX_43.jpg
119.214303017	1.830745934999996	face	0.600791931152	1.0	0.8	n/a	n/a	121.045048952	121.061863899	122.044646025	n/a	26M_FE_O.jpg	26M_FE_O.jpg	27M_FE_O.BMP
122.194734812	1.8488960260000056	face	0.571002006531	1.0	0.8	n/a	n/a	124.043630838	124.060719967	125.043164015	n/a	MFZ_50.jpg	MFZ_50.jpg	MFX_16.jpg
125.215965033	1.8269188399999905	face	0.728458881378	1.0	0.8	n/a	n/a	127.042883873	127.059033871	128.042128801	n/a	10F_AN_O.jpg	09F_AN_O.jpg	09F_AN_O.jpg
128.200214863	1.8418660159999831	face	0.679171800613	1.0	0.8	n/a	n/a	130.042080879	130.058696985	131.041277885	n/a	38M_AN_O.BMP	39M_AN_O.jpg	39M_AN_O.jpg
131.184876919	1.8558468820000087	face	0.766839981079	1.0	0.8	n/a	n/a	133.040723801	133.057488918	134.039809942	n/a	FFZ_102.jpg	FFX_130.jpg	FFX_130.jpg
137.088549852	1.94985509	shape	0.619990110397	1.0	0.8	134.137584925	137.036922932	139.038404942	139.055321932	140.039249897	n/a	oval-horizontal.bmp	oval-horizontal.bmp	oval-vertical.bmp
140.172238827	1.8665060989999915	shape	0.622386932373	1.0	0.8	n/a	n/a	142.038744926	142.055684805	143.038352966	n/a	oval-horizontal.bmp	oval-vertical.bmp	oval-vertical.bmp
143.172600985	1.865628956999984	shape	0.619093894958	1.0	0.8	n/a	n/a	145.038229942	145.053663015	146.037304878	n/a	circle.bmp	circle.bmp	oval-vertical.bmp
146.170959949	1.867765903999981	shape	0.653631925583	1.0	0.8	n/a	n/a	148.038725853	148.053098917	149.035722971	n/a	circle.bmp	oval-vertical.bmp	oval-vertical.bmp
149.16970396	1.8664829740000075	shape	0.64541888237	1.0	0.8	n/a	n/a	151.036186934	151.0521698	152.036360025	n/a	oval-horizontal.bmp	circle.bmp	circle.bmp
152.162089825	1.8755731579999804	shape	0.559374094009	1.0	0.8	n/a	n/a	154.037662983	154.051496029	155.036279917	n/a	oval-horizontal.bmp	oval-horizontal.bmp	circle.bmp
158.131579876	1.901875973000017	face	1.02316713333	1.0	0.8	155.135814905	158.03125	160.033455849	160.050257921	161.032464981	n/a	20M_FE_O.jpg	21M_FE_O.jpg	21M_FE_O.jpg
161.232934952	1.7997958660000108	face	0.754327058792	1.0	0.8	n/a	n/a	163.032730818	163.049001932	164.032466888	n/a	01F_AN_O.jpg	07F_AN_O.jpg	07F_AN_O.jpg
164.198612928	1.8330540660000167	face	0.653435230255	1.0	0.8	n/a	n/a	166.031666994	166.047915936	167.030710936	n/a	FFX_139.jpg	FFZ_102.jpg	FFZ_102.jpg
167.231846809	1.7991909980000005	face	0.719579935074	1.0	0.8	n/a	n/a	169.031037807	169.047565937	170.046089888	n/a	23M_AN_O.jpg	23M_AN_O.jpg	22M_AN_O.jpg
170.21359992	1.8329789640000056	face	0.645252943039	1.0	0.8	n/a	n/a	172.046578884	172.062310934	173.045689821	n/a	MAZ_146.jpg	MAZ_146.jpg	MAX_233.jpg
173.239156008	1.8061618799999903	face	0.810885906219	1.0	0.8	n/a	n/a	175.045317888	175.062008858	176.045214891	n/a	15F_FE_O.jpg	15F_FE_O.jpg	16F_FE_O.jpg
179.109107018	1.9358940120000057	shape	0.924001932144	1.0	0.8	176.172425032	179.042045832	181.04500103	181.06062603	182.043293953	n/a	oval-horizontal.bmp	oval-vertical.bmp	oval-vertical.bmp
182.210649967	1.8332068919999929	shape	0.587248086929	1.0	0.8	n/a	n/a	184.043856859	184.059186935	185.041845798	n/a	circle.bmp	oval-vertical.bmp	oval-vertical.bmp
185.226826906	1.8144519329999864	shape	0.720906972885	1.0	0.8	n/a	n/a	187.041278839	187.058811903	188.040795803	n/a	oval-horizontal.bmp	oval-horizontal.bmp	oval-vertical.bmp
188.191735029	1.848962784000008	shape	0.819814920425	1.0	0.8	n/a	n/a	190.040697813	190.057356834	191.039706945	n/a	oval-horizontal.bmp	oval-horizontal.bmp	circle.bmp
191.201004028	1.8388519289999865	shape	0.776041984558	1.0	0.8	n/a	n/a	193.039855957	193.056500912	194.039528847	n/a	circle.bmp	circle.bmp	oval-vertical.bmp
194.251528025	1.787366867000003	shape	0.660186052322	1.0	0.8	n/a	n/a	196.038894892	196.056105852	197.038337946	n/a	oval-horizontal.bmp	circle.bmp	circle.bmp
200.120999813	1.9172952179999925	face	0.605293989182	1.0	0.8	197.150763988	200.035281897	202.038295031	202.054004908	203.03757	n/a	FFX_54.jpg	FFX_54.jpg	FAX_51.jpg
203.222321033	1.8147218230000133	face	0.752557039261	1.0	0.8	n/a	n/a	205.037042856	205.053800821	206.035595894	n/a	40M_FE_O.BMP	41M_FE_O.jpg	41M_FE_O.jpg
206.22063303	1.8154478069999984	face	0.536041021347	1.0	0.8	n/a	n/a	208.036080837	208.052403927	209.035349846	n/a	29M_AN_O.jpg	29M_AN_O.jpg	28M_AN_O.jpg
209.203418016	1.830868960000004	face	0.55073094368	1.0	0.8	n/a	n/a	211.034286976	211.051113844	212.03391695	n/a	FFZ_18.jpg	FFZ_29.jpg	FFZ_29.jpg
212.235385895	1.7981750959999945	face	0.525192022324	1.0	0.8	n/a	n/a	214.033560991	214.049732924	215.033464909	n/a	19F_AN_O.jpg	19F_AN_O.jpg	09F_AN_O.jpg
215.203734875	1.829331158999992	face	0.557582855225	1.0	0.8	n/a	n/a	217.033066034	217.049929857	218.031992912	n/a	MFZ_132.jpg	MFZ_7.jpg	MFZ_7.jpg
221.081542969	1.951107979	shape	0.588814020157	1.0	0.8	218.142086029	221.030036926	223.032650948	223.048848867	224.031668901	n/a	circle.bmp	oval-vertical.bmp	oval-vertical.bmp
224.182499886	1.8485729690000028	shape	0.620032072067	1.0	0.8	n/a	n/a	226.031072855	226.048472881	227.030436993	n/a	oval-horizontal.bmp	oval-horizontal.bmp	circle.bmp
227.180807829	1.8656661509999992	shape	0.551507949829	1.0	0.8	n/a	n/a	229.04647398	229.063145876	230.045643806	n/a	oval-horizontal.bmp	oval-vertical.bmp	oval-vertical.bmp
230.179605961	1.866019964000003	shape	0.650964021683	1.0	0.8	n/a	n/a	232.045625925	232.062216997	233.044881821	n/a	oval-horizontal.bmp	circle.bmp	circle.bmp
233.179617882	1.8652360439999995	shape	0.591376066208	1.0	0.8	n/a	n/a	235.044853926	235.061824799	236.043365955	n/a	oval-horizontal.bmp	oval-horizontal.bmp	oval-vertical.bmp
236.22226882	1.821998119	shape	1.25777697563	1.0	0.8	n/a	n/a	238.044266939	238.060455799	239.043145895	n/a	circle.bmp	circle.bmp	oval-vertical.bmp
242.141769886	1.901319027	face	1.02152109146	1.0	0.8	239.146359921	242.040141821	244.043088913	244.059041977	245.041796923	n/a	20M_FE_O.jpg	21M_FE_O.jpg	21M_FE_O.jpg
245.226998806	1.814578055999988	face	0.79975104332	1.0	0.8	n/a	n/a	247.041576862	247.058553934	248.040858984	n/a	07F_AN_O.jpg	07F_AN_O.jpg	01F_AN_O.jpg
248.19192791	1.8483800889999884	face	0.620161056519	1.0	0.8	n/a	n/a	250.040307999	250.05706501	251.039566994	n/a	FFZ_102.jpg	FFZ_102.jpg	FFX_139.jpg
251.22446084	1.8147070409999912	face	0.853338956833	1.0	0.8	n/a	n/a	253.039167881	253.055339813	254.038535833	n/a	22M_AN_O.jpg	23M_AN_O.jpg	23M_AN_O.jpg
254.198122978	1.8406770230000404	face	0.761693954468	1.0	0.8	n/a	n/a	256.038800001	256.055022955	257.037590027	n/a	MAX_233.jpg	MAZ_146.jpg	MAZ_146.jpg
257.216288805	1.8214271070000336	face	1.0755341053	1.0	0.8	n/a	n/a	259.037715912	259.054500818	260.036998034	n/a	15F_FE_O.jpg	15F_FE_O.jpg	16F_FE_O.jpg
263.103204966	1.9338090420000071	shape	0.637480974197	1.0	0.8	260.142565966	263.03638196	265.037014008	265.052590847	266.035703897	n/a	oval-horizontal.bmp	oval-horizontal.bmp	oval-vertical.bmp
266.186932802	1.8481550220000145	shape	0.652046918869	1.0	0.8	n/a	n/a	268.035087824	268.052093029	269.034101009	n/a	oval-horizontal.bmp	oval-vertical.bmp	oval-vertical.bmp
269.168401003	1.8659408089999945	shape	0.500487089157	1.0	0.8	n/a	n/a	271.034341812	271.050979853	272.033305883	n/a	circle.bmp	circle.bmp	oval-vertical.bmp
272.173322916	1.8598179819999807	shape	0.746402978897	1.0	0.8	n/a	n/a	274.033140898	274.049715996	275.032413006	n/a	circle.bmp	oval-vertical.bmp	oval-vertical.bmp
275.166894913	1.8659470079999776	shape	0.961438894272	1.0	0.8	n/a	n/a	277.032841921	277.049598932	278.031404018	n/a	oval-horizontal.bmp	circle.bmp	circle.bmp
278.176841021	1.8545289040000057	shape	0.575268030167	1.0	0.8	n/a	n/a	280.031369925	280.047489882	281.030692816	n/a	oval-horizontal.bmp	oval-horizontal.bmp	circle.bmp
284.097071886	1.9335451130000365	face	0.621961832047	1.0	0.8	281.138612986	284.030236959	286.030616999	286.047044992	287.045785904	n/a	FFZ_18.jpg	FAZ_129.jpg	FAZ_129.jpg
287.230751991	1.815528870000037	face	1.11553192139	1.0	0.8	n/a	n/a	289.046280861	289.062415838	290.045032978	n/a	20M_FE_O.jpg	24M_FE_O.jpg	24M_FE_O.jpg
290.199355841	1.8458840839999768	face	0.599338054657	1.0	0.8	n/a	n/a	292.045239925	292.061347961	293.043526888	n/a	FAZ_23.jpg	FAX_25.jpg	FAX_25.jpg
293.227881908	1.8163490300000265	face	0.783022880554	1.0	0.8	n/a	n/a	295.044230938	295.060194016	296.043799877	n/a	33M_FE_O.jpg	33M_FE_O.jpg	35M_FE_O.jpg
296.235577822	1.8071861260000333	face	1.01056814194	1.0	0.8	n/a	n/a	298.042763948	298.0589118	299.042212009	n/a	01F_AN_O.jpg	01F_AN_O.jpg	02F_AN_O.jpg
299.206480026	1.835434914000018	face	1.22482705116	1.0	0.8	n/a	n/a	301.04191494	301.058557987	302.038317919	n/a	MFZ_132.jpg	MFZ_132.jpg	MFZ_120.jpg
305.090627909	1.9505360120000432	shape	0.650948047638	1.0	0.8	302.143796921	305.041206837	307.041163921	307.05753994	308.040140867	n/a	oval-horizontal.bmp	oval-vertical.bmp	oval-vertical.bmp
308.191910982	1.8475799559999475	shape	0.668920040131	1.0	0.8	n/a	n/a	310.039490938	310.057348013	311.038785934	n/a	circle.bmp	oval-vertical.bmp	oval-vertical.bmp
311.17315197	1.8659119609999948	shape	0.617250919342	1.0	0.8	n/a	n/a	313.039063931	313.054679871	314.037482977	n/a	oval-horizontal.bmp	oval-horizontal.bmp	oval-vertical.bmp
314.171978951	1.865822075999972	shape	0.552020072937	1.0	0.8	n/a	n/a	316.037801027	316.054594994	317.036715984	n/a	oval-horizontal.bmp	oval-horizontal.bmp	circle.bmp
317.171368837	1.865667105	shape	0.610830068588	1.0	0.8	n/a	n/a	319.037035942	319.053447008	320.036605835	n/a	circle.bmp	circle.bmp	oval-vertical.bmp
320.181564808	1.8543121809999548	shape	0.542057037354	1.0	0.8	n/a	n/a	322.035876989	322.052605867	323.035162926	n/a	oval-horizontal.bmp	circle.bmp	circle.bmp
326.134644985	1.9003460409999773	face	0.8205039501205	0.0	0.8	323.158667803	326.034484863	328.034991026	328.051193953	329.034336805	n/a	17F_FE_O.jpg	18F_FE_O.jpg	18F_FE_O.jpg
329.218184948	1.8156368730000167	face	0.618889093399	1.0	0.8	n/a	n/a	331.033821821	331.050314903	332.033555031	n/a	42M_AN_O.jpg	43M_AN_O.jpg	43M_AN_O.jpg
332.220681906	1.811543941000025	face	0.61611700058	1.0	0.8	n/a	n/a	334.032225847	334.04952693	335.031462908	n/a	31M_FE_O.jpg	31M_FE_O.jpg	32M_FE_O.jpg
335.201572895	1.8304879669999536	face	0.6696600914	1.0	0.8	n/a	n/a	337.032060862	337.048238993	338.031183004	n/a	FAZ_212.jpg	FFZ_236.jpg	FFZ_236.jpg
338.214864969	1.815774917999988	face	0.577470064163	1.0	0.8	n/a	n/a	340.030639887	340.047669888	341.030092955	n/a	06F_FE_O.jpg	06F_FE_O.jpg	08F_FE_O.jpg
341.19242692	1.8546519280000096	face	0.758365154266	1.0	0.8	n/a	n/a	343.047078848	343.06327486	344.042656898	n/a	MAZ_128.jpg	MAZ_128.jpg	MAX_39.jpg
347.0946908	1.950509070999999	shape	0.673995018005	1.0	0.8	344.151676893	347.045565844	349.045199871	349.061522007	350.043766022	n/a	circle.bmp	oval-vertical.bmp	oval-vertical.bmp
350.196557999	1.8475048540000216	shape	0.551525115967	1.0	0.8	n/a	n/a	352.044062853	352.060344934	353.043326855	n/a	oval-horizontal.bmp	oval-horizontal.bmp	circle.bmp
353.194267035	1.8492648600000048	shape	0.735293865204	1.0	0.8	n/a	n/a	355.043531895	355.059617996	356.041893005	n/a	oval-horizontal.bmp	oval-vertical.bmp	oval-vertical.bmp
356.183563948	1.859102963999988	shape	0.831112861633	1.0	0.8	n/a	n/a	358.042666912	358.059216022	359.041893959	n/a	oval-horizontal.bmp	circle.bmp	circle.bmp
359.184142828	1.856693983000013	shape	0.77739906311	1.0	0.8	n/a	n/a	361.040836811	361.058117867	362.040463924	n/a	oval-horizontal.bmp	oval-horizontal.bmp	oval-vertical.bmp
362.186260939	1.850458860000004	shape	0.574756145477	1.0	0.8	n/a	n/a	364.036719799	364.053637028	365.036428928	n/a	circle.bmp	circle.bmp	oval-vertical.bmp
368.106144905	1.933636903999968	face	0.67272400856	1.0	0.8	365.147807837	368.039387941	370.039781809	370.056128979	371.039201975	n/a	FFZ_18.jpg	FAZ_129.jpg	FAZ_129.jpg
371.306877851	1.7305691249999882	face	0.936398029327	1.0	0.8	n/a	n/a	373.037446976	373.054206848	374.036821842	n/a	20M_FE_O.jpg	24M_FE_O.jpg	24M_FE_O.jpg
374.205049992	1.832021951000001	face	0.836245059967	1.0	0.8	n/a	n/a	376.037071943	376.053341866	377.036859035	n/a	FAZ_23.jpg	FAX_25.jpg	FAX_25.jpg
377.226881027	1.809107781000023	face	0.664910078049	1.0	0.8	n/a	n/a	379.035988808	379.053247929	380.035470009	n/a	33M_FE_O.jpg	33M_FE_O.jpg	35M_FE_O.jpg
380.228251934	1.806771993999973	face	0.626770019531	1.0	0.8	n/a	n/a	382.035023928	382.051252842	383.03491497	n/a	01F_AN_O.jpg	01F_AN_O.jpg	02F_AN_O.jpg
383.20500803	1.8255097869999872	face	0.734637022018	1.0	0.8	n/a	n/a	385.030517817	385.046913862	386.031188965	394.431550026	MFZ_132.jpg	MFZ_132.jpg	MFZ_120.jpg
