onset	duration	trial_type	response_time	accuracy_binarized	tr_seconds	cueStartTime	cueEndTime	trialEndTime	fixStartTime	fixEndTime	runEndTime	stimLeft	stimTop	stimRight
11.12834906578064	1.9363889694213867	shape	1.00048804283	1.0	0.8	8.06752896308899	11.064014911651611	13.064738035202026	13.0951669216156	14.101317882537842	n/a	oval-horizontal.bmp	oval-horizontal.bmp	oval-vertical.bmp
14.195011854171751	1.906234025955202	shape	0.766342878342	0.0	0.8	n/a	n/a	16.101245880126953	16.128172874450684	17.10129189491272	n/a	oval-horizontal.bmp	oval-vertical.bmp	oval-vertical.bmp
17.17823100090027	1.902466058731079	shape	0.999476909637	1.0	0.8	n/a	n/a	19.080697059631348	19.11143803596497	20.0811140537262	n/a	circle.bmp	circle.bmp	oval-vertical.bmp
20.161670923233032	1.939450979232788	shape	0.732837915421	1.0	0.8	n/a	n/a	22.10112190246582	22.12823486328125	23.101320028305054	n/a	circle.bmp	oval-vertical.bmp	oval-vertical.bmp
23.178252935409542	1.902526140213016	shape	0.766145944595	1.0	0.8	n/a	n/a	25.08077907562256	25.11154007911682	26.0811619758606	n/a	oval-horizontal.bmp	circle.bmp	circle.bmp
26.161761045455933	1.9394588470458984	shape	0.903322935104	1.0	0.8	n/a	n/a	28.10121989250183	28.12835597991944	29.10133099555969	n/a	oval-horizontal.bmp	oval-horizontal.bmp	circle.bmp
32.14503598213196	1.9354760646820068	face	0.899615049362	1.0	0.8	29.14588093757629	32.080546855926514	34.080512046813965	34.11163592338562	35.0811870098114	n/a	FAZ_23.jpg	FAZ_23.jpg	FAX_43.jpg
35.21201300621033	1.8683369159698489	face	1.03226089478	1.0	0.8	n/a	n/a	37.080349922180176	37.1116349697113	38.08124995231629	n/a	26M_FE_O.jpg	26M_FE_O.jpg	27M_FE_O.BMP
38.19561696052551	1.905488967895508	face	0.79892206192	1.0	0.8	n/a	n/a	40.10110592842102	40.12843298912048	41.10158491134644	n/a	MFX_16.jpg	MFZ_50.jpg	MFZ_50.jpg
41.22857308387756	1.872529983520508	face	0.998895168304	1.0	0.8	n/a	n/a	43.10110306739807	43.12845492362976	44.10165691375733	n/a	09F_AN_O.jpg	09F_AN_O.jpg	10F_AN_O.jpg
44.22861695289612	1.872499942779541	face	1.1323890686	1.0	0.8	n/a	n/a	46.10111689567566	46.128543853759766	47.101386070251465	n/a	38M_AN_O.BMP	39M_AN_O.jpg	39M_AN_O.jpg
47.21213388442993	1.8683550357818604	face	1.16557884216	1.0	0.8	n/a	n/a	49.08048892021179	49.11181807518005	50.08136105537415	n/a	FFZ_102.jpg	FFX_130.jpg	FFX_130.jpg
53.1453800201416	1.9358088970184328	shape	0.933733940125	0.0	0.8	50.13022494316101	53.10118198394776	55.081188917160034	55.11181306838989	56.08147788047791	n/a	oval-horizontal.bmp	oval-vertical.bmp	oval-vertical.bmp
56.16192698478699	1.93976092338562	shape	0.732841968536	1.0	0.8	n/a	n/a	58.10168790817261	58.128581047058105	59.09879088401794	n/a	circle.bmp	oval-vertical.bmp	oval-vertical.bmp
59.17861890792847	1.902541160583496	shape	1.29971313477	1.0	0.8	n/a	n/a	61.08116006851196	61.11193585395813	62.08167791366577	n/a	oval-horizontal.bmp	oval-horizontal.bmp	oval-vertical.bmp
62.17880892753601	1.9025249481201167	shape	0.79948592186	1.0	0.8	n/a	n/a	64.08133387565613	64.1118700504303	65.08155107498169	n/a	oval-horizontal.bmp	oval-horizontal.bmp	circle.bmp
65.1622040271759	1.939221858978272	shape	1.06610894203	1.0	0.8	n/a	n/a	67.10142588615417	67.1286940574646	68.06502389907837	n/a	circle.bmp	circle.bmp	oval-vertical.bmp
68.16233897209167	1.9393179416656487	shape	0.933083057404	1.0	0.8	n/a	n/a	70.10165691375732	70.12872791290283	71.06507086753845	n/a	oval-horizontal.bmp	circle.bmp	circle.bmp
74.17897200584412	1.9024269580841064	face	1.29962301254	1.0	0.8	71.11788392066956	74.08108186721802	76.08139896392822	76.11208987236023	77.08167505264282	n/a	03F_FE_O.jpg	05F_FE_O.jpg	05F_FE_O.jpg
77.19569897651672	1.9057800769805908	face	1.0322201252	1.0	0.8	n/a	n/a	79.10147905349731	79.1288959980011	80.06496095657349	n/a	FAZ_32.jpg	FAZ_32.jpg	FAX_45.jpg
80.17896795272827	1.9022729396820068	face	1.79891896248	1.0	0.8	n/a	n/a	82.08124089241028	82.11222696304321	83.08166003227234	n/a	MAZ_128.jpg	MAZ_101.jpg	MAZ_101.jpg
83.2126989364624	1.8681669235229488	face	1.59897494316	1.0	0.8	n/a	n/a	85.08086585998535	85.1122899055481	86.08172297477722	n/a	11F_AN_O.jpg	11F_AN_O.jpg	12F_AN_O.jpg
86.21245288848877	1.8684091567993164	face	1.06594109535	1.0	0.8	n/a	n/a	88.08086204528809	88.11237096786499	89.08176708221436	n/a	26M_FE_O.jpg	33M_FE_O.jpg	33M_FE_O.jpg
89.1957700252533	1.9056808948516848	face	1.4989490509	1.0	0.8	n/a	n/a	91.10145092010498	91.12895607948305	92.06526803970335	n/a	MFZ_132.jpg	MFZ_132.jpg	MFZ_120.jpg
95.12915802001952	1.935844898223877	shape	1.00019097328	1.0	0.8	92.11940503120422	95.0811619758606	97.0650029182434	97.0957329273224	98.06533789634705	n/a	circle.bmp	oval-vertical.bmp	oval-vertical.bmp
98.16252303123474	1.939107894897461	shape	0.733139038086	1.0	0.8	n/a	n/a	100.1016309261322	100.129056930542	101.0653920173645	n/a	oval-horizontal.bmp	oval-horizontal.bmp	circle.bmp
101.16254901885986	1.9393630027771	shape	0.83281493187	1.0	0.8	n/a	n/a	103.10191202163696	103.12902808189392	104.06532192230225	n/a	oval-horizontal.bmp	oval-vertical.bmp	oval-vertical.bmp
104.16270804405212	1.9388129711151123	shape	0.733102083206	1.0	0.8	n/a	n/a	106.10152101516724	106.12911486625671	107.06541800498962	n/a	oval-horizontal.bmp	circle.bmp	circle.bmp
107.16262197494508	1.9394190311431745	shape	0.903140068054	1.0	0.8	n/a	n/a	109.10204100608826	109.12913703918456	110.06532287597656	n/a	oval-horizontal.bmp	oval-horizontal.bmp	oval-vertical.bmp
110.1459538936615	1.9356260299682613	shape	0.999583005905	1.0	0.8	n/a	n/a	112.08157992362976	112.11239004135132	113.08197689056396	n/a	circle.bmp	circle.bmp	oval-vertical.bmp
116.16254186630248	1.9393250942230509	face	1.13289999962	1.0	0.8	113.13086104393004	116.10160493850708	118.10186696052553	118.12922286987305	119.06544899940492	n/a	FAZ_23.jpg	FAZ_23.jpg	FAX_43.jpg
119.19627499580383	1.9052190780639648	face	1.43227910995	1.0	0.8	n/a	n/a	121.1014940738678	121.1292688846588	122.06558585166933	n/a	26M_FE_O.jpg	26M_FE_O.jpg	27M_FE_O.BMP
122.17928504943848	1.902447938919068	face	1.23230600357	1.0	0.8	n/a	n/a	124.08173298835754	124.11262202262878	125.08216500282288	n/a	MFZ_50.jpg	MFZ_50.jpg	MFX_16.jpg
125.21272492408752	1.868535041809082	face	1.56556010246	1.0	0.8	n/a	n/a	127.0812599658966	127.11259388923644	128.08218097686768	n/a	10F_AN_O.jpg	09F_AN_O.jpg	09F_AN_O.jpg
128.2128388881683	1.8684761524200724	face	0.96564078331	1.0	0.8	n/a	n/a	130.08131504058838	130.11279702186584	131.08214807510376	n/a	38M_AN_O.BMP	39M_AN_O.jpg	39M_AN_O.jpg
131.1961989402771	1.905648946762085	face	0.966007947922	1.0	0.8	n/a	n/a	133.10184788703918	133.12943291664124	134.06554985046387	n/a	FFZ_102.jpg	FFX_130.jpg	FFX_130.jpg
137.12949895858765	1.935964107513428	shape	0.936399936676	1.0	0.8	134.1154079437256	137.0815269947052	139.06546306610107	139.09999108314514	140.06554985046387	n/a	oval-horizontal.bmp	oval-horizontal.bmp	oval-vertical.bmp
140.163076877594	1.9022130966186523	shape	1.36615395546	1.0	0.8	n/a	n/a	142.06528997421265	142.10014390945437	143.06562185287476	n/a	oval-horizontal.bmp	oval-vertical.bmp	oval-vertical.bmp
143.16315603256226	1.902102947235108	shape	1.1327650547	1.0	0.8	n/a	n/a	145.06525897979736	145.10007905960083	146.06562089920044	n/a	circle.bmp	circle.bmp	oval-vertical.bmp
146.16315507888794	1.9021539688110067	shape	0.933053970337	1.0	0.8	n/a	n/a	148.06530904769895	148.10034799575806	149.06564497947693	n/a	circle.bmp	oval-vertical.bmp	oval-vertical.bmp
149.16319489479065	1.902318000793457	shape	0.766162157059	1.0	0.8	n/a	n/a	151.0655128955841	151.09625005722046	152.0658299922943	n/a	oval-horizontal.bmp	circle.bmp	circle.bmp
152.16307306289673	1.9023609161376955	shape	0.866362810135	1.0	0.8	n/a	n/a	154.06543397903442	154.09955501556396	155.06579685211182	n/a	oval-horizontal.bmp	oval-horizontal.bmp	circle.bmp
158.17998504638672	1.901638984680176	face	1.43291211128	1.0	0.8	155.12032294273376	158.08177185058594	160.0816240310669	160.11303091049194	161.08247208595276	n/a	20M_FE_O.jpg	21M_FE_O.jpg	21M_FE_O.jpg
161.22982501983645	1.87248206138608	face	1.16562509537	1.0	0.8	n/a	n/a	163.10230708122253	163.12962698936462	164.06599402427673	n/a	01F_AN_O.jpg	07F_AN_O.jpg	07F_AN_O.jpg
164.1965639591217	1.9054090976715088	face	0.899204015732	1.0	0.8	n/a	n/a	166.1019730567932	166.12967705726624	167.06590485572815	n/a	FFX_139.jpg	FFZ_102.jpg	FFZ_102.jpg
167.21378898620603	1.868093013763456	face	0.999318122864	1.0	0.8	n/a	n/a	169.08188199996948	169.11317205429077	170.08258485794067	n/a	23M_AN_O.jpg	23M_AN_O.jpg	22M_AN_O.jpg
170.19684600830078	1.904770851135254	face	1.0323009491	1.0	0.8	n/a	n/a	172.10161685943604	172.12980103492737	173.06607604026794	n/a	MAZ_146.jpg	MAZ_146.jpg	MAX_233.jpg
173.21342992782593	1.86849308013916	face	0.965653896332	1.0	0.8	n/a	n/a	175.0819230079651	175.11318802833557	176.08263897895813	n/a	15F_FE_O.jpg	15F_FE_O.jpg	16F_FE_O.jpg
179.13068389892578	1.9355111122131063	shape	1.2685585021965	0.0	0.8	176.1348159313202	179.06539297103882	181.0661950111389	181.09644198417664	182.0659899711609	n/a	oval-horizontal.bmp	oval-vertical.bmp	oval-vertical.bmp
182.1633670330048	1.902693033218384	shape	0.732805013657	1.0	0.8	n/a	n/a	184.0660600662232	184.09649395942688	185.066155910492	n/a	circle.bmp	oval-vertical.bmp	oval-vertical.bmp
185.1633670330048	1.902701854705782	shape	0.866227865219	1.0	0.8	n/a	n/a	187.06606888771057	187.10013604164124	188.06600785255432	n/a	oval-horizontal.bmp	oval-horizontal.bmp	oval-vertical.bmp
188.16351890563965	1.902256965637236	shape	0.799496889114	1.0	0.8	n/a	n/a	190.06577587127688	190.0997610092163	191.0660779476165	n/a	oval-horizontal.bmp	oval-horizontal.bmp	circle.bmp
191.1635849475861	1.902127981185913	shape	0.799429893494	1.0	0.8	n/a	n/a	193.065712928772	193.09935402870173	194.0660500526428	n/a	circle.bmp	circle.bmp	oval-vertical.bmp
194.1634669303894	1.9026501178741453	shape	0.799390077591	1.0	0.8	n/a	n/a	196.06611704826355	196.0966520309448	197.0662748813629	n/a	oval-horizontal.bmp	circle.bmp	circle.bmp
200.163645029068	1.9019098281860352	face	1.03328180313	1.0	0.8	197.12701106071472	200.0821349620819	202.06555485725403	202.0966739654541	203.06624102592468	n/a	FFX_54.jpg	FFX_54.jpg	FAX_51.jpg
203.1968810558319	1.8685739040374472	face	0.932498931885	1.0	0.8	n/a	n/a	205.06545495986936	205.097158908844	206.06619596481323	n/a	40M_FE_O.BMP	41M_FE_O.jpg	41M_FE_O.jpg
206.19693899154663	1.868778944015503	face	0.799227952957	1.0	0.8	n/a	n/a	208.06571793556213	208.09700107574463	209.06625294685364	n/a	29M_AN_O.jpg	29M_AN_O.jpg	28M_AN_O.jpg
209.18049597740173	1.90201997756958	face	1.06595110893	1.0	0.8	n/a	n/a	211.0825159549713	211.11350893974304	212.0829610824585	n/a	FFZ_18.jpg	FFZ_29.jpg	FFZ_29.jpg
212.2135729789734	1.8689820766448968	face	0.998971939087	1.0	0.8	n/a	n/a	214.0825550556183	214.1134729385376	215.08316206932068	n/a	19F_AN_O.jpg	19F_AN_O.jpg	09F_AN_O.jpg
215.21403288841248	1.8687291145324425	face	1.19926905632	1.0	0.8	n/a	n/a	217.0827620029449	217.1135380268097	218.08302092552185	n/a	MFZ_132.jpg	MFZ_7.jpg	MFZ_7.jpg
221.11439490318293	1.9351401329040807	shape	0.866693019867	1.0	0.8	218.13695788383484	221.0657110214233	223.04953503608704	223.0800700187683	224.08301186561584	n/a	circle.bmp	oval-vertical.bmp	oval-vertical.bmp
224.1803889274597	1.902384042739925	shape	0.866193056107	1.0	0.8	n/a	n/a	226.0827729701996	226.1136648654937	227.08310508728027	n/a	oval-horizontal.bmp	oval-horizontal.bmp	circle.bmp
227.18039393424988	1.9024090766906447	shape	0.933182001114	1.0	0.8	n/a	n/a	229.08280301094047	229.11371302604675	230.083153963089	n/a	oval-horizontal.bmp	oval-vertical.bmp	oval-vertical.bmp
230.1804120540619	1.902381896972628	shape	0.966219902039	1.0	0.8	n/a	n/a	232.0827939510345	232.1137330532074	233.08318305015564	n/a	oval-horizontal.bmp	circle.bmp	circle.bmp
233.18045091629028	1.9024081230163568	shape	0.766433954239	1.0	0.8	n/a	n/a	235.08285903930664	235.113627910614	236.08320307731628	n/a	oval-horizontal.bmp	oval-horizontal.bmp	oval-vertical.bmp
236.18048095703125	1.902343988418579	shape	1.33306407928	1.0	0.8	n/a	n/a	238.08282494544983	238.1137969493866	239.0832178592682	n/a	circle.bmp	circle.bmp	oval-vertical.bmp
242.16414594650269	1.9021949768066408	face	1.46626496315	1.0	0.8	239.13803005218503	242.06589698791504	244.06634092330933	244.09710907936096	245.0666148662567	n/a	20M_FE_O.jpg	21M_FE_O.jpg	21M_FE_O.jpg
245.21396207809448	1.8684618473052688	face	1.09916710854	1.0	0.8	n/a	n/a	247.08242392539967	247.1139030456543	248.08326292037964	n/a	07F_AN_O.jpg	07F_AN_O.jpg	01F_AN_O.jpg
248.19715785980225	1.8686540126800537	face	0.932553052902	1.0	0.8	n/a	n/a	250.0658118724823	250.0990738868713	251.0666790008545	n/a	FFZ_102.jpg	FFZ_102.jpg	FFX_139.jpg
251.2145688533783	1.867974042892456	face	1.56602907181	1.0	0.8	n/a	n/a	253.08254289627075	253.11392188072205	254.08335185050964	n/a	22M_AN_O.jpg	23M_AN_O.jpg	23M_AN_O.jpg
254.1975989341736	1.868301153182955	face	1.26559209824	1.0	0.8	n/a	n/a	256.06590008735657	256.0994038581848	257.0668630599976	n/a	MAX_233.jpg	MAZ_146.jpg	MAZ_146.jpg
257.2142610549927	1.8683059215545648	face	1.09924197197	1.0	0.8	n/a	n/a	259.08256697654724	259.1140160560608	260.0833809375763	n/a	15F_FE_O.jpg	15F_FE_O.jpg	16F_FE_O.jpg
263.11492395401	1.9350409507752035	shape	1.30018687248	1.0	0.8	260.1393880844116	263.0660979747772	265.0499649047852	265.08046102523804	266.0835220813751	n/a	oval-horizontal.bmp	oval-horizontal.bmp	oval-vertical.bmp
266.18080496788025	1.902395009994564	shape	1.06617999077	1.0	0.8	n/a	n/a	268.0831999778748	268.1140689849853	269.08349800109863	n/a	oval-horizontal.bmp	oval-vertical.bmp	oval-vertical.bmp
269.18082189559937	1.9023339748382568	shape	0.766413211823	1.0	0.8	n/a	n/a	271.0831558704376	271.11413192749023	272.0835590362549	n/a	circle.bmp	circle.bmp	oval-vertical.bmp
272.1808638572693	1.9023261070251465	shape	0.799566030502	1.0	0.8	n/a	n/a	274.08318996429443	274.1141149997711	275.0835289955139	n/a	circle.bmp	oval-vertical.bmp	oval-vertical.bmp
275.18084502220154	1.902780055999756	shape	0.732835054398	1.0	0.8	n/a	n/a	277.0836250782013	277.1140880584717	278.0835208892822	n/a	oval-horizontal.bmp	circle.bmp	circle.bmp
278.1808979511261	1.9024069309235188	shape	0.966331005096	1.0	0.8	n/a	n/a	280.0833048820496	280.1141998767853	281.0835540294647	n/a	oval-horizontal.bmp	oval-horizontal.bmp	circle.bmp
284.14747405052185	1.9355080127716064	face	0.96656703949	1.0	0.8	281.1404769420624	284.06635785102844	286.08298206329346	286.11425495147705	287.08366990089417	n/a	FFZ_18.jpg	FAZ_129.jpg	FAZ_129.jpg
287.23113107681274	1.8349909782409668	face	1.39920306206	1.0	0.8	n/a	n/a	289.0661220550537	289.0994038581848	290.0670368671417	n/a	20M_FE_O.jpg	24M_FE_O.jpg	24M_FE_O.jpg
290.1812720298767	1.901716947555542	face	0.99929189682	1.0	0.8	n/a	n/a	292.08298897743225	292.1143319606781	293.08375000953674	n/a	FAZ_23.jpg	FAX_25.jpg	FAX_25.jpg
293.2312579154968	1.8349449634552	face	0.998878002167	1.0	0.8	n/a	n/a	295.066202878952	295.099809885025	296.06709694862366	n/a	33M_FE_O.jpg	33M_FE_O.jpg	35M_FE_O.jpg
296.2144379615784	1.8686408996581465	face	1.39928007126	1.0	0.8	n/a	n/a	298.0830788612366	298.1143469810486	299.08373498916626	n/a	01F_AN_O.jpg	01F_AN_O.jpg	02F_AN_O.jpg
299.19761896133423	1.8686408996582031	face	1.29938912392	1.0	0.8	n/a	n/a	301.06625986099243	301.099219083786	302.0671169757843	n/a	MFZ_132.jpg	MFZ_132.jpg	MFZ_120.jpg
305.131206035614	1.9357478618621824	shape	1.26726603508	1.0	0.8	302.1248710155487	305.0831689834595	307.0669538974762	307.10005593299866	308.0673608779907	n/a	oval-horizontal.bmp	oval-vertical.bmp	oval-vertical.bmp
308.1813509464264	1.9022650718688965	shape	0.999469995499	1.0	0.8	n/a	n/a	310.0836160182953	310.1144459247589	311.0838570594788	n/a	circle.bmp	oval-vertical.bmp	oval-vertical.bmp
311.181254863739	1.9026100635528564	shape	0.799665927887	1.0	0.8	n/a	n/a	313.08386492729187	313.1144950389862	314.0839478969574	n/a	oval-horizontal.bmp	oval-horizontal.bmp	oval-vertical.bmp
314.1812479496002	1.902673006057796	shape	0.832847833633	1.0	0.8	n/a	n/a	316.083920955658	316.1144618988037	317.08396792411804	n/a	oval-horizontal.bmp	oval-horizontal.bmp	circle.bmp
317.18128204345703	1.9022789001464844	shape	0.999439001083	1.0	0.8	n/a	n/a	319.0835609436035	319.1145429611206	320.08410692214966	n/a	circle.bmp	circle.bmp	oval-vertical.bmp
320.1811349391937	1.9029219150543213	shape	0.699578046799	1.0	0.8	n/a	n/a	322.08405685424805	322.1144268512726	323.0841488838196	n/a	oval-horizontal.bmp	circle.bmp	circle.bmp
326.19796895980835	1.8690690994262693	face	1.26639795303	1.0	0.8	323.14877104759216	326.08351588249207	328.0670380592346	328.101361989975	329.0673840045929	n/a	17F_FE_O.jpg	18F_FE_O.jpg	18F_FE_O.jpg
329.214763879776	1.8684751987457275	face	0.965653896332	1.0	0.8	n/a	n/a	331.08323907852173	331.1147010326385	332.0842459201813	n/a	42M_AN_O.jpg	43M_AN_O.jpg	43M_AN_O.jpg
332.23142099380493	1.8351089954375648	face	1.1989428997	1.0	0.8	n/a	n/a	334.0665299892425	334.09804797172546	335.0674650669098	n/a	31M_FE_O.jpg	31M_FE_O.jpg	32M_FE_O.jpg
335.18150901794434	1.9017279148101809	face	0.932598114014	1.0	0.8	n/a	n/a	337.0832369327545	337.1146969795227	338.08429193496704	n/a	FAZ_212.jpg	FFZ_236.jpg	FFZ_236.jpg
338.23167991638184	1.8349261283874512	face	1.03256797791	1.0	0.8	n/a	n/a	340.0666060447693	340.0981330871582	341.06758999824524	n/a	06F_FE_O.jpg	06F_FE_O.jpg	08F_FE_O.jpg
341.18131399154663	1.9020490646362305	face	1.03226685524	1.0	0.8	n/a	n/a	343.08336305618286	343.1148009300232	344.08426094055176	n/a	MAZ_128.jpg	MAZ_128.jpg	MAX_39.jpg
347.13165307044983	1.9356508255004885	shape	0.733520030975	1.0	0.8	344.149934053421	347.08354806900024	349.0673038959503	349.0997848510742	350.0675690174103	n/a	circle.bmp	oval-vertical.bmp	oval-vertical.bmp
350.16492199897766	1.9023690223693848	shape	0.933242797852	1.0	0.8	n/a	n/a	352.06729102134705	352.09909892082214	353.0676069259644	n/a	oval-horizontal.bmp	oval-horizontal.bmp	circle.bmp
353.1649658679962	1.9023661613464355	shape	1.13286495209	1.0	0.8	n/a	n/a	355.06733202934265	355.0988109111786	356.0676410198212	n/a	oval-horizontal.bmp	oval-vertical.bmp	oval-vertical.bmp
356.16499495506287	1.9023010730743408	shape	0.999557971954	1.0	0.8	n/a	n/a	358.0672960281372	358.10045886039734	359.0676610469818	n/a	oval-horizontal.bmp	circle.bmp	circle.bmp
359.16501688957214	1.9023621082305908	shape	1.13290596008	1.0	0.8	n/a	n/a	361.06737899780273	361.0995450019837	362.0676620006561	n/a	oval-horizontal.bmp	oval-horizontal.bmp	oval-vertical.bmp
362.1648468971253	1.9030179977415853	shape	0.7995698452	1.0	0.8	n/a	n/a	364.0678648948669	364.0981810092926	365.0677318572998	n/a	circle.bmp	circle.bmp	oval-vertical.bmp
368.1652410030365	1.9017059803009035	face	0.933366060257	1.0	0.8	365.1299090385437	368.0837750434876	370.0669469833374	370.09836506843567	371.0677669048309	n/a	FFZ_18.jpg	FAZ_129.jpg	FAZ_129.jpg
371.2154438495636	1.8680942058563232	face	1.36566591263	1.0	0.8	n/a	n/a	373.0835380554199	373.1150200366974	374.0845880508423	n/a	20M_FE_O.jpg	24M_FE_O.jpg	24M_FE_O.jpg
374.2151658535004	1.8684530258178145	face	1.06557703018	1.0	0.8	n/a	n/a	376.08361887931824	376.1150379180908	377.0845699310303	n/a	FAZ_23.jpg	FAX_25.jpg	FAX_25.jpg
377.2320199012756	1.8349511623383137	face	1.19896411896	1.0	0.8	n/a	n/a	379.0669710636139	379.09905886650085	380.0677959918976	n/a	33M_FE_O.jpg	33M_FE_O.jpg	35M_FE_O.jpg
380.2152118682861	1.86843919754034	face	1.3656270504	1.0	0.8	n/a	n/a	382.0836510658264	382.1151280403137	383.084636926651	n/a	01F_AN_O.jpg	01F_AN_O.jpg	02F_AN_O.jpg
383.21543407440186	1.86829686164856	face	1.63228487968	1.0	0.8	n/a	n/a	385.0837309360504	385.1151728630066	386.0846920013428	394.4847350120544	MFZ_132.jpg	MFZ_132.jpg	MFZ_120.jpg
