onset	duration	trial_type	response_time	accuracy_binarized	tr_seconds	cueStartTime	cueEndTime	trialEndTime	fixStartTime	fixEndTime	runEndTime	stimLeft	stimTop	stimRight
11.0505399704	1.9691441059000017	shape	0.844075918198	1.0	0.8	8.01431798935	11.0029399395	13.0196840763	13.0244829655	14.0187160969	n/a	oval-horizontal.bmp	oval-horizontal.bmp	oval-vertical.bmp
14.1367139816	1.8818709851000008	shape	1.14547801018	1.0	0.8	n/a	n/a	16.0185849667	16.0224299431	17.0183179379	n/a	oval-horizontal.bmp	oval-vertical.bmp	oval-vertical.bmp
17.117964983	1.900863170600001	shape	0.7282371521	1.0	0.8	n/a	n/a	19.0188281536	19.0223889351	20.0177819729	n/a	circle.bmp	circle.bmp	oval-vertical.bmp
20.1178729534	1.9004399777	shape	0.760591983795	1.0	0.8	n/a	n/a	22.0183129311	22.0218949318	23.0180680752	n/a	circle.bmp	oval-vertical.bmp	oval-vertical.bmp
23.118076086	1.9105839730000007	shape	0.619317054749	1.0	0.8	n/a	n/a	25.028660059	25.0322501659	26.028414011	n/a	oval-horizontal.bmp	circle.bmp	circle.bmp
26.1260409355	1.9019291400999985	shape	0.953047037125	1.0	0.8	n/a	n/a	28.0279700756	28.0318191051	29.028414011	n/a	oval-horizontal.bmp	oval-horizontal.bmp	circle.bmp
32.0898649693	1.9276371001999948	face	0.836182832718	1.0	0.8	29.1019289494	32.0281209946	34.0175020695	34.0219881535	35.0174629688	n/a	FAZ_23.jpg	FAZ_23.jpg	FAX_43.jpg
35.1618499756	1.855048179600004	face	0.840651035309	1.0	0.8	n/a	n/a	37.0168981552	37.0203001499	38.0162091255	n/a	26M_FE_O.jpg	26M_FE_O.jpg	27M_FE_O.BMP
38.1444959641	1.8841271399999968	face	0.985962867737	1.0	0.8	n/a	n/a	40.0286231041	40.0328271389	41.0154850483	n/a	MFX_16.jpg	MFZ_50.jpg	MFZ_50.jpg
41.1681101322	1.848022937800004	face	1.35801291466	1.0	0.8	n/a	n/a	43.01613307	43.0198040009	44.0154709816	n/a	09F_AN_O.jpg	09F_AN_O.jpg	10F_AN_O.jpg
44.1542170048	1.861606120999994	face	1.23420095444	1.0	0.8	n/a	n/a	46.0158231258	46.0193729401	47.015171051	n/a	38M_AN_O.BMP	39M_AN_O.jpg	39M_AN_O.jpg
47.141808033	1.8738029003000063	face	1.45699882507	1.0	0.8	n/a	n/a	49.0156109333	49.0192379951	50.0153999329	n/a	FFZ_102.jpg	FFX_130.jpg	FFX_130.jpg
53.0511009693	1.9642331599999991	shape	0.790019035339	1.0	0.8	50.0932559967	53.0145151615	55.0153341293	55.0198831558	56.0145540237	n/a	oval-horizontal.bmp	oval-vertical.bmp	oval-vertical.bmp
56.116202116	1.914577007300004	shape	0.590031862259	1.0	0.8	n/a	n/a	58.0307791233	58.0343470573	59.030518055	n/a	circle.bmp	oval-vertical.bmp	oval-vertical.bmp
59.1323771477	1.8980770111	shape	0.756232023239	1.0	0.8	n/a	n/a	61.0304541588	61.0343410969	62.0300500393	n/a	oval-horizontal.bmp	oval-horizontal.bmp	oval-vertical.bmp
62.1319110394	1.8987500666999964	shape	0.70716881752	1.0	0.8	n/a	n/a	64.0306611061	64.0346770287	65.0295469761	n/a	oval-horizontal.bmp	oval-horizontal.bmp	circle.bmp
65.1299390793	1.9001309872000007	shape	0.922678947449	1.0	0.8	n/a	n/a	67.0300700665	67.0336830616	68.0289781094	n/a	circle.bmp	circle.bmp	oval-vertical.bmp
68.1297659874	1.899461030999987	shape	0.785691976547	1.0	0.8	n/a	n/a	70.0292270184	70.0328080654	71.0290601254	n/a	oval-horizontal.bmp	circle.bmp	circle.bmp
74.121915102	1.907251834899995	face	1.18814682961	1.0	0.8	71.1065051556	74.0288691521	76.0291669369	76.0341219902	77.0283520222	n/a	03F_FE_O.jpg	05F_FE_O.jpg	05F_FE_O.jpg
77.1552579403	1.8734982013999968	face	1.07014107704	1.0	0.8	n/a	n/a	79.0287561417	79.0323150158	80.0279409885	n/a	FAZ_32.jpg	FAZ_32.jpg	FAX_45.jpg
80.1558189392	1.872947216	face	1.38702893257	1.0	0.8	n/a	n/a	82.0287661552	82.0323741436	83.0281889439	n/a	MAZ_128.jpg	MAZ_101.jpg	MAZ_101.jpg
83.1785149574	1.850105047300005	face	0.969909906387	1.0	0.8	n/a	n/a	85.0286200047	85.032253027	86.0273871422	n/a	11F_AN_O.jpg	11F_AN_O.jpg	12F_AN_O.jpg
86.1728160381	1.854638099700012	face	1.15371394157	1.0	0.8	n/a	n/a	88.0274541378	88.0315930843	89.0275249481	n/a	26M_FE_O.jpg	33M_FE_O.jpg	33M_FE_O.jpg
89.1541731358	1.872538805000005	face	1.26728701591	1.0	0.8	n/a	n/a	91.0267119408	91.0303881168	92.0263450146	n/a	MFZ_132.jpg	MFZ_132.jpg	MFZ_120.jpg
95.0630829334	1.9635841846999968	shape	0.536103963852	1.0	0.8	92.1048209667	95.0262680054	97.0266671181	97.0312321186	98.0260510445	n/a	circle.bmp	oval-vertical.bmp	oval-vertical.bmp
98.1287009716	1.897272110399996	shape	0.602988004684	1.0	0.8	n/a	n/a	100.025973082	100.029700994	101.025886059	n/a	oval-horizontal.bmp	oval-horizontal.bmp	circle.bmp
101.129512072	1.896908044	shape	0.636457204819	1.0	0.8	n/a	n/a	103.026420116	103.030117989	104.024791956	n/a	oval-horizontal.bmp	oval-vertical.bmp	oval-vertical.bmp
104.129012108	1.896617888999998	shape	0.919692993164	1.0	0.8	n/a	n/a	106.025629997	106.029201984	107.025030136	n/a	oval-horizontal.bmp	circle.bmp	circle.bmp
107.12697506	1.898899078	shape	0.684477090836	1.0	0.8	n/a	n/a	109.025874138	109.029494047	110.025393963	n/a	oval-horizontal.bmp	oval-horizontal.bmp	oval-vertical.bmp
110.127385139	1.8976278310000083	shape	0.718889951706	1.0	0.8	n/a	n/a	112.02501297	112.028680086	113.024376154	n/a	circle.bmp	circle.bmp	oval-vertical.bmp
116.077240944	1.9475741389999968	face	0.837398052216	1.0	0.8	113.103752136	116.023658991	118.024815083	118.029327154	119.023605108	n/a	FAZ_23.jpg	FAZ_23.jpg	FAX_43.jpg
119.161108017	1.863210916	face	0.753981113434	1.0	0.8	n/a	n/a	121.024318933	121.027905941	122.02315402	n/a	26M_FE_O.jpg	26M_FE_O.jpg	27M_FE_O.BMP
122.145905018	1.8775300980000085	face	0.686694145203	1.0	0.8	n/a	n/a	124.023435116	124.027083158	125.023614168	n/a	MFZ_50.jpg	MFZ_50.jpg	MFX_16.jpg
125.181230068	1.8423469069999925	face	1.08687901497	1.0	0.8	n/a	n/a	127.023576975	127.027194977	128.023003101	n/a	10F_AN_O.jpg	09F_AN_O.jpg	09F_AN_O.jpg
128.158561945	1.8652951720000035	face	1.0339820385	1.0	0.8	n/a	n/a	130.023857117	130.027455091	131.022202969	n/a	38M_AN_O.BMP	39M_AN_O.jpg	39M_AN_O.jpg
131.14469409	1.8782150739999963	face	1.02106714249	1.0	0.8	n/a	n/a	133.022909164	133.026539087	134.022017956	n/a	FFZ_102.jpg	FFX_130.jpg	FFX_130.jpg
137.059477091	1.9632110590000025	shape	0.670478105545	1.0	0.8	134.103417158	137.022056103	139.02268815	139.027265072	140.021037102	n/a	oval-horizontal.bmp	oval-horizontal.bmp	oval-vertical.bmp
140.124432087	1.8970370289999887	shape	0.733515024185	1.0	0.8	n/a	n/a	142.021469116	142.025099039	143.020941973	n/a	oval-horizontal.bmp	oval-vertical.bmp	oval-vertical.bmp
143.128376961	1.89348697600002	shape	0.65318107605	1.0	0.8	n/a	n/a	145.021863937	145.025397062	146.020621061	n/a	circle.bmp	circle.bmp	oval-vertical.bmp
146.130316973	1.890650987000015	shape	0.63139796257	1.0	0.8	n/a	n/a	148.02096796	148.024686098	149.020718098	n/a	circle.bmp	oval-vertical.bmp	oval-vertical.bmp
149.126785994	1.8937280170000008	shape	0.720152139664	1.0	0.8	n/a	n/a	151.020514011	151.024064064	152.020035028	n/a	oval-horizontal.bmp	circle.bmp	circle.bmp
152.126682997	1.8939399719999983	shape	0.653928041458	1.0	0.8	n/a	n/a	154.020622969	154.024246931	155.01951313	n/a	oval-horizontal.bmp	oval-horizontal.bmp	circle.bmp
158.10157299	1.919132947999998	face	0.802221059799	0.0	0.8	155.102854967	158.01999712	160.020705938	160.025967121	161.018906116	n/a	20M_FE_O.jpg	21M_FE_O.jpg	21M_FE_O.jpg
161.178390026	1.8413169380000056	face	0.892486810684	1.0	0.8	n/a	n/a	163.019706964	163.023596048	164.019264936	n/a	01F_AN_O.jpg	07F_AN_O.jpg	07F_AN_O.jpg
164.147040129	1.8717980380000083	face	1.21223187447	1.0	0.8	n/a	n/a	166.018838167	166.022520065	167.018779039	n/a	FFX_139.jpg	FFZ_102.jpg	FFZ_102.jpg
167.174693108	1.8439419269999744	face	0.884760856628	1.0	0.8	n/a	n/a	169.018635035	169.022318125	170.017801046	n/a	23M_AN_O.jpg	23M_AN_O.jpg	22M_AN_O.jpg
170.144261122	1.8742859360000068	face	0.663273096085	1.0	0.8	n/a	n/a	172.018547058	172.022247076	173.017886162	n/a	MAZ_146.jpg	MAZ_146.jpg	MAX_233.jpg
173.168524981	1.850363016000017	face	1.35340285301	1.0	0.8	n/a	n/a	175.018887997	175.022712946	176.017349005	n/a	15F_FE_O.jpg	15F_FE_O.jpg	16F_FE_O.jpg
179.054193974	1.9630820750000169	shape	0.784346103668	1.0	0.8	176.105442047	179.017290115	181.017276049	181.02177906	182.016602039	n/a	oval-horizontal.bmp	oval-vertical.bmp	oval-vertical.bmp
182.123723984	1.893099068999988	shape	0.554934978485	1.0	0.8	n/a	n/a	184.016823053	184.020457983	185.016961098	n/a	circle.bmp	oval-vertical.bmp	oval-vertical.bmp
185.125076056	1.891797064999992	shape	0.737469911575	1.0	0.8	n/a	n/a	187.016873121	187.020211935	188.015753984	n/a	oval-horizontal.bmp	oval-horizontal.bmp	oval-vertical.bmp
188.126136065	1.8899688719999967	shape	0.643157958984	1.0	0.8	n/a	n/a	190.016104937	190.019734144	191.015458107	n/a	oval-horizontal.bmp	oval-horizontal.bmp	circle.bmp
191.125021935	1.89076709699998	shape	0.862723112106	1.0	0.8	n/a	n/a	193.015789032	193.019411087	194.01522994	n/a	circle.bmp	circle.bmp	oval-vertical.bmp
194.126012087	1.8894338610000148	shape	0.725847005844	1.0	0.8	n/a	n/a	196.015445948	196.01937294	197.015088081	n/a	oval-horizontal.bmp	circle.bmp	circle.bmp
200.073354006	1.942044973000009	face	0.96950507164	1.0	0.8	197.101832151	200.014680147	202.015398979	202.019811153	203.01453805	n/a	FFX_54.jpg	FFX_54.jpg	FAX_51.jpg
203.157855988	1.857643127000017	face	0.791263103485	1.0	0.8	n/a	n/a	205.015499115	205.019122124	206.014502048	n/a	40M_FE_O.BMP	41M_FE_O.jpg	41M_FE_O.jpg
206.169877052	1.8451759820000009	face	0.821551799774	1.0	0.8	n/a	n/a	208.015053034	208.019016981	209.014191151	n/a	29M_AN_O.jpg	29M_AN_O.jpg	28M_AN_O.jpg
209.14597106	1.8848090170000087	face	0.924441099167	1.0	0.8	n/a	n/a	211.030780077	211.034337997	212.030003071	n/a	FFZ_18.jpg	FFZ_29.jpg	FFZ_29.jpg
212.192451954	1.838418007000001	face	0.857264995575	1.0	0.8	n/a	n/a	214.030869961	214.03444314	215.030209064	n/a	19F_AN_O.jpg	19F_AN_O.jpg	09F_AN_O.jpg
215.162604094	1.867406845000005	face	1.02416205406	1.0	0.8	n/a	n/a	217.030010939	217.033766031	218.028946161	n/a	MFZ_132.jpg	MFZ_7.jpg	MFZ_7.jpg
221.064576149	1.9648249150000083	shape	0.653573989868	1.0	0.8	218.12065196	221.028927088	223.029401064	223.033859015	224.028558969	n/a	circle.bmp	oval-vertical.bmp	oval-vertical.bmp
224.14091301	1.88794612800001	shape	0.641778945923	1.0	0.8	n/a	n/a	226.028859138	226.032432079	227.028172016	n/a	oval-horizontal.bmp	oval-horizontal.bmp	circle.bmp
227.139722109	1.888639927000014	shape	0.589932918549	1.0	0.8	n/a	n/a	229.028362036	229.031888962	230.028522015	n/a	oval-horizontal.bmp	oval-vertical.bmp	oval-vertical.bmp
230.144884109	1.8832399849999888	shape	0.969339132309	1.0	0.8	n/a	n/a	232.028124094	232.03241396	233.027451992	n/a	oval-horizontal.bmp	circle.bmp	circle.bmp
233.138936043	1.889136076	shape	0.621681928635	1.0	0.8	n/a	n/a	235.028072119	235.031620026	236.027037144	n/a	oval-horizontal.bmp	oval-horizontal.bmp	oval-vertical.bmp
236.141313076	1.8862469200000191	shape	0.722197055817	1.0	0.8	n/a	n/a	238.027559996	238.031147003	239.026859999	n/a	circle.bmp	circle.bmp	oval-vertical.bmp
242.105556965	1.9213731289999885	face	1.27084708214	1.0	0.8	239.117391109	242.027122974	244.026930094	244.031996012	245.026101112	n/a	20M_FE_O.jpg	21M_FE_O.jpg	21M_FE_O.jpg
245.186632156	1.8401739599999871	face	0.903517961502	1.0	0.8	n/a	n/a	247.026806116	247.03037405	248.025988102	n/a	07F_AN_O.jpg	07F_AN_O.jpg	01F_AN_O.jpg
248.157585144	1.8688178060000096	face	0.767039060593	1.0	0.8	n/a	n/a	250.02640295	250.030010939	251.026296139	n/a	FFZ_102.jpg	FFZ_102.jpg	FFX_139.jpg
251.183254957	1.8432459830000028	face	1.15424203873	1.0	0.8	n/a	n/a	253.02650094	253.030069113	254.025071144	n/a	22M_AN_O.jpg	23M_AN_O.jpg	23M_AN_O.jpg
254.157640934	1.86809110599998	face	0.86824297905	1.0	0.8	n/a	n/a	256.02573204	256.029344082	257.025072098	n/a	MAX_233.jpg	MAZ_146.jpg	MAZ_146.jpg
257.177675009	1.8481209280000144	face	0.904113054276	1.0	0.8	n/a	n/a	259.025795937	259.029651165	260.02482295	n/a	15F_FE_O.jpg	15F_FE_O.jpg	16F_FE_O.jpg
263.060213089	1.963881016000016	shape	0.634922027588	1.0	0.8	260.120433092	263.023681164	265.024094105	265.02858305	266.023627996	n/a	oval-horizontal.bmp	oval-horizontal.bmp	oval-vertical.bmp
266.139783144	1.883831978000046	shape	0.536329030991	1.0	0.8	n/a	n/a	268.023615122	268.027323961	269.023504972	n/a	oval-horizontal.bmp	oval-vertical.bmp	oval-vertical.bmp
269.141591072	1.8821580410000247	shape	0.603264093399	1.0	0.8	n/a	n/a	271.023749113	271.027397156	272.022997141	n/a	circle.bmp	circle.bmp	oval-vertical.bmp
272.137197018	1.8867449759999888	shape	0.586579084396	1.0	0.8	n/a	n/a	274.023941994	274.027501106	275.023329973	n/a	circle.bmp	oval-vertical.bmp	oval-vertical.bmp
275.143703938	1.879495142999985	shape	0.633967876434	1.0	0.8	n/a	n/a	277.023199081	277.026726007	278.022542	n/a	oval-horizontal.bmp	circle.bmp	circle.bmp
278.1366961	1.8866300590000264	shape	0.917586088181	1.0	0.8	n/a	n/a	280.023326159	280.027338028	281.022876978	n/a	oval-horizontal.bmp	oval-horizontal.bmp	circle.bmp
284.081555128	1.941005945000029	face	0.734480857849	1.0	0.8	281.117650032	284.021962166	286.022561073	286.027701139	287.020759106	n/a	FFZ_18.jpg	FAZ_129.jpg	FAZ_129.jpg
287.183367968	1.8389041419999896	face	1.10401701927	1.0	0.8	n/a	n/a	289.02227211	289.025850058	290.021417141	n/a	20M_FE_O.jpg	24M_FE_O.jpg	24M_FE_O.jpg
290.157941103	1.8629379270000184	face	0.736332893372	1.0	0.8	n/a	n/a	292.02087903	292.024553061	293.020947933	n/a	FAZ_23.jpg	FAX_25.jpg	FAX_25.jpg
293.18555212	1.83567500099997	face	0.686237096786	1.0	0.8	n/a	n/a	295.021227121	295.02480197	296.020910025	n/a	33M_FE_O.jpg	33M_FE_O.jpg	35M_FE_O.jpg
296.18594408	1.835291863000009	face	0.749793052673	1.0	0.8	n/a	n/a	298.021235943	298.024861097	299.020735025	n/a	01F_AN_O.jpg	01F_AN_O.jpg	02F_AN_O.jpg
299.157221079	1.8639938829999776	face	0.93679690361	1.0	0.8	n/a	n/a	301.021214962	301.024768114	302.019930124	n/a	MFZ_132.jpg	MFZ_132.jpg	MFZ_120.jpg
305.058125973	1.961462973999972	shape	0.819294214249	1.0	0.8	302.116560936	305.019830942	307.019588947	307.024007082	308.018859148	n/a	oval-horizontal.bmp	oval-vertical.bmp	oval-vertical.bmp
308.139958143	1.879992007999988	shape	0.753993988037	1.0	0.8	n/a	n/a	310.019950151	310.023324966	311.019052982	n/a	circle.bmp	oval-vertical.bmp	oval-vertical.bmp
311.142075062	1.8769750590000167	shape	0.652863025665	1.0	0.8	n/a	n/a	313.019050121	313.023028135	314.018145084	n/a	oval-horizontal.bmp	oval-horizontal.bmp	oval-vertical.bmp
314.138339996	1.880429982999999	shape	0.68657207489	1.0	0.8	n/a	n/a	316.018769979	316.022563934	317.018167019	n/a	oval-horizontal.bmp	oval-horizontal.bmp	circle.bmp
317.135138988	1.8837020400000029	shape	0.70396900177	1.0	0.8	n/a	n/a	319.018841028	319.022341967	320.017755032	n/a	circle.bmp	circle.bmp	oval-vertical.bmp
320.141098976	1.876962184999968	shape	0.58381986618	1.0	0.8	n/a	n/a	322.018061161	322.021562099	323.017487049	n/a	oval-horizontal.bmp	circle.bmp	circle.bmp
326.100752115	1.91708993900005	face	1.26937103271	1.0	0.8	323.113631964	326.017477989	328.017842054	328.022550106	329.016936064	n/a	17F_FE_O.jpg	18F_FE_O.jpg	18F_FE_O.jpg
329.181097984	1.836838960999956	face	0.714790821075	1.0	0.8	n/a	n/a	331.017936945	331.021635056	332.016662121	n/a	42M_AN_O.jpg	43M_AN_O.jpg	43M_AN_O.jpg
332.177884102	1.8393540380000104	face	0.996315956116	1.0	0.8	n/a	n/a	334.01723814	334.021188974	335.016167164	n/a	31M_FE_O.jpg	31M_FE_O.jpg	32M_FE_O.jpg
335.157052994	1.859030961999963	face	0.719447851181	1.0	0.8	n/a	n/a	337.016083956	337.019701004	338.015998125	n/a	FAZ_212.jpg	FFZ_236.jpg	FFZ_236.jpg
338.180186033	1.835614920000012	face	0.729254007339	1.0	0.8	n/a	n/a	340.015800953	340.019837141	341.015511036	n/a	06F_FE_O.jpg	06F_FE_O.jpg	08F_FE_O.jpg
341.155879021	1.860328912	face	1.28582000732	1.0	0.8	n/a	n/a	343.016207933	343.019819975	344.015012026	n/a	MAZ_128.jpg	MAZ_128.jpg	MAX_39.jpg
347.052117109	1.963109017000022	shape	0.654345035553	1.0	0.8	344.111644983	347.015167952	349.015226126	349.019837141	350.014448166	n/a	circle.bmp	oval-vertical.bmp	oval-vertical.bmp
350.137480974	1.894042014999968	shape	0.554182052612	1.0	0.8	n/a	n/a	352.031522989	352.035140038	353.030806065	n/a	oval-horizontal.bmp	oval-horizontal.bmp	circle.bmp
353.151342154	1.8796918389999744	shape	0.586017131805	1.0	0.8	n/a	n/a	355.031033993	355.034646034	356.03047204	n/a	oval-horizontal.bmp	oval-vertical.bmp	oval-vertical.bmp
356.155764103	1.87486887	shape	0.587388038635	1.0	0.8	n/a	n/a	358.030632973	358.034307003	359.030076027	n/a	oval-horizontal.bmp	circle.bmp	circle.bmp
359.153964996	1.876299142999983	shape	0.704491138458	1.0	0.8	n/a	n/a	361.030264139	361.034088135	362.029839039	n/a	oval-horizontal.bmp	oval-horizontal.bmp	oval-vertical.bmp
362.15062499	1.8795311460000328	shape	0.85271692276	1.0	0.8	n/a	n/a	364.030156136	364.033759117	365.029740095	n/a	circle.bmp	circle.bmp	oval-vertical.bmp
368.083166122	1.94658493999998	face	0.803965091705	1.0	0.8	365.130038023	368.029086113	370.029751062	370.034278154	371.029216051	n/a	FFZ_18.jpg	FAZ_129.jpg	FAZ_129.jpg
371.191648006	1.837685109000006	face	1.12584805489	1.0	0.8	n/a	n/a	373.029333115	373.032953978	374.028578997	n/a	20M_FE_O.jpg	24M_FE_O.jpg	24M_FE_O.jpg
374.176867008	1.8526239400000009	face	0.821511030197	1.0	0.8	n/a	n/a	376.029490948	376.033137083	377.028239012	n/a	FAZ_23.jpg	FAX_25.jpg	FAX_25.jpg
377.192424059	1.8361721039999568	face	0.674197912216	1.0	0.8	n/a	n/a	379.028596163	379.032210112	380.028038025	n/a	33M_FE_O.jpg	33M_FE_O.jpg	35M_FE_O.jpg
380.19801712	1.8303568370000107	face	0.824787139893	1.0	0.8	n/a	n/a	382.028373957	382.031949043	383.027364016	n/a	01F_AN_O.jpg	01F_AN_O.jpg	02F_AN_O.jpg
383.17189908	1.856621980999989	face	0.789510965347	1.0	0.8	n/a	n/a	385.028521061	385.032130957	386.027092934	394.426331043	MFZ_132.jpg	MFZ_132.jpg	MFZ_120.jpg
