onset	duration	trial_type	response_time	accuracy_binarized	tr_seconds	cueStartTime	cueEndTime	trialEndTime	fixStartTime	fixEndTime	runEndTime	stimLeft	stimTop	stimRight
11.1130690574646	1.9340198040008545	shape	1.83348011971	1.0	0.8	8.054425954818726	11.046875	13.047088861465454	13.079486846923828	14.080029010772703	n/a	oval-horizontal.bmp	oval-horizontal.bmp	oval-vertical.bmp
14.179643869400024	1.901103019714356	shape	1.13360095024	1.0	0.8	n/a	n/a	16.08074688911438	16.11296796798706	17.08000087738037	n/a	oval-horizontal.bmp	oval-vertical.bmp	oval-vertical.bmp
17.16314196586609	1.9339148998260496	shape	1.06693005562	1.0	0.8	n/a	n/a	19.09705686569214	19.129669904708862	20.096862077713013	n/a	circle.bmp	circle.bmp	oval-vertical.bmp
20.19664096832276	1.9009690284728933	shape	0.933810949326	1.0	0.8	n/a	n/a	22.09760999679565	22.129859924316406	23.0969078540802	n/a	circle.bmp	oval-vertical.bmp	oval-vertical.bmp
23.179883003234863	1.900629997253418	shape	1.33402299881	1.0	0.8	n/a	n/a	25.08051300048828	25.113183975219727	26.08024501800537	n/a	oval-horizontal.bmp	circle.bmp	circle.bmp
26.163375854492188	1.9344241619110107	shape	0.866992950439	1.0	0.8	n/a	n/a	28.0978000164032	28.12996196746826	29.09710597991944	n/a	oval-horizontal.bmp	oval-horizontal.bmp	circle.bmp
32.16394400596619	1.9023280143737795	face	0.935389995575	1.0	0.8	29.154985904693604	32.08040404319763	34.066272020339966	34.097163915634155	35.06671500205994	n/a	FAZ_23.jpg	FAZ_23.jpg	FAX_43.jpg
35.19751191139221	1.8684771060943604	face	1.29938077927	1.0	0.8	n/a	n/a	37.06598901748657	37.09720206260681	38.06682205200195	n/a	26M_FE_O.jpg	26M_FE_O.jpg	27M_FE_O.BMP
38.18108105659485	1.9017739295959544	face	0.732637882233	1.0	0.8	n/a	n/a	40.0828549861908	40.11410999298096	41.083585023880005	n/a	MFX_16.jpg	MFZ_50.jpg	MFZ_50.jpg
41.21444797515869	1.868369102478028	face	1.46569013596	1.0	0.8	n/a	n/a	43.08281707763672	43.11405491828919	44.08362007141113	n/a	09F_AN_O.jpg	09F_AN_O.jpg	10F_AN_O.jpg
44.214385986328125	1.868563890457153	face	0.832307815552	1.0	0.8	n/a	n/a	46.08294987678528	46.1143798828125	47.0837709903717	n/a	38M_AN_O.BMP	39M_AN_O.jpg	39M_AN_O.jpg
47.19781994819641	1.868499994277954	face	1.09904098511	1.0	0.8	n/a	n/a	49.066319942474365	49.09769797325134	50.06711292266846	n/a	FFZ_102.jpg	FFX_130.jpg	FFX_130.jpg
53.11441707611084	1.936039924621582	shape	0.800328016281	1.0	0.8	50.11270594596863	53.06654000282288	55.05045700073242	55.081202030181885	56.08390784263611	n/a	oval-horizontal.bmp	oval-vertical.bmp	oval-vertical.bmp
56.16457200050354	1.9023978710174632	shape	0.766422986984	1.0	0.8	n/a	n/a	58.066969871521	58.09776902198792	59.067338943481445	n/a	circle.bmp	oval-vertical.bmp	oval-vertical.bmp
59.1479868888855	1.9362289905548096	shape	0.866280078888	1.0	0.8	n/a	n/a	61.08421587944031	61.114542961120605	62.08410501480103	n/a	oval-horizontal.bmp	oval-horizontal.bmp	oval-vertical.bmp
62.164875984191895	1.9022510051727293	shape	0.832917928696	1.0	0.8	n/a	n/a	64.06712698936462	64.09792399406433	65.06747603416443	n/a	oval-horizontal.bmp	oval-horizontal.bmp	circle.bmp
65.14813089370728	1.936084032058716	shape	0.93306684494	1.0	0.8	n/a	n/a	67.08421492576599	67.11484503746033	68.08440804481506	n/a	circle.bmp	circle.bmp	oval-vertical.bmp
68.18156599998474	1.9027700424194336	shape	0.833060026169	1.0	0.8	n/a	n/a	70.08433604240417	70.11493587493896	71.08444094657898	n/a	oval-horizontal.bmp	circle.bmp	circle.bmp
74.16537499427795	1.902193069458008	face	1.30003786087	1.0	0.8	71.13931202888489	74.06719088554382	76.06756806373596	76.09834003448486	77.06793594360352	n/a	03F_FE_O.jpg	05F_FE_O.jpg	05F_FE_O.jpg
77.18185496330261	1.902318000793457	face	0.932901859283	1.0	0.8	n/a	n/a	79.08417296409607	79.11515307426453	80.08465099334717	n/a	FAZ_32.jpg	FAZ_32.jpg	FAX_45.jpg
80.19868087768555	1.8684661388397217	face	1.23269486427	1.0	0.8	n/a	n/a	82.06714701652527	82.09836292266846	83.06795907020569	n/a	MAZ_128.jpg	MAZ_101.jpg	MAZ_101.jpg
83.19888591766357	1.8684420585632324	face	1.03247213364	1.0	0.8	n/a	n/a	85.0673279762268	85.09841895103455	86.06824898719788	n/a	11F_AN_O.jpg	11F_AN_O.jpg	12F_AN_O.jpg
86.21546697616577	1.8684940338134768	face	0.865720033646	1.0	0.8	n/a	n/a	88.08396100997925	88.11517786979675	89.08478593826294	n/a	26M_FE_O.jpg	33M_FE_O.jpg	33M_FE_O.jpg
89.19884586334229	1.868483066558838	face	0.932698965073	1.0	0.8	n/a	n/a	91.06732892990112	91.0985689163208	92.06829190254211	n/a	MFZ_132.jpg	MFZ_132.jpg	MFZ_120.jpg
95.13214302062988	1.936038017272964	shape	0.733205795288	1.0	0.8	92.1225950717926	95.08425998687744	97.06818103790285	97.09871101379396	98.06840705871582	n/a	circle.bmp	oval-vertical.bmp	oval-vertical.bmp
98.16578793525696	1.902256965637207	shape	0.666179895401	1.0	0.8	n/a	n/a	100.06804490089417	100.0987799167633	101.06840991973876	n/a	oval-horizontal.bmp	oval-horizontal.bmp	circle.bmp
101.16601204872131	1.902180910110488	shape	0.699758052826	1.0	0.8	n/a	n/a	103.0681929588318	103.09888505935668	104.06854391098022	n/a	oval-horizontal.bmp	oval-vertical.bmp	oval-vertical.bmp
104.16591501235962	1.9021470546722408	shape	0.799489021301	1.0	0.8	n/a	n/a	106.06806206703186	106.09892201423644	107.06858706474304	n/a	oval-horizontal.bmp	circle.bmp	circle.bmp
107.16606497764587	1.902539014816284	shape	0.833254098892	0.0	0.8	n/a	n/a	109.06860399246216	109.09901285171507	110.06874799728394	n/a	oval-horizontal.bmp	oval-horizontal.bmp	oval-vertical.bmp
110.1660680770874	1.902141809463501	shape	0.966406822205	1.0	0.8	n/a	n/a	112.0682098865509	112.0992670059204	113.06878995895386	n/a	circle.bmp	circle.bmp	oval-vertical.bmp
116.14955306053162	1.935200929641724	face	0.766419172287	1.0	0.8	113.12461304664612	116.0847029685974	118.08475399017334	118.11588191986084	119.08550500869752	n/a	FAZ_23.jpg	FAZ_23.jpg	FAX_43.jpg
119.21651697158812	1.868196964263916	face	0.632558822632	1.0	0.8	n/a	n/a	121.08471393585204	121.1159439086914	122.08550000190736	n/a	26M_FE_O.jpg	26M_FE_O.jpg	27M_FE_O.BMP
122.19963002204896	1.8685288429260112	face	0.799026966095	1.0	0.8	n/a	n/a	124.06815886497498	124.0993480682373	125.06907486915588	n/a	MFZ_50.jpg	MFZ_50.jpg	MFX_16.jpg
125.21653199195862	1.8687880039215088	face	1.19937491417	1.0	0.8	n/a	n/a	127.08531999588013	127.1161458492279	128.08566284179688	n/a	10F_AN_O.jpg	09F_AN_O.jpg	09F_AN_O.jpg
128.2164590358734	1.8685379028320312	face	0.699065208435	1.0	0.8	n/a	n/a	130.08499693870544	130.1161298751831	131.08579206466675	n/a	38M_AN_O.BMP	39M_AN_O.jpg	39M_AN_O.jpg
131.1998369693756	1.8690500259399407	face	0.832436084747	1.0	0.8	n/a	n/a	133.06888699531555	133.09968185424805	134.06926488876343	n/a	FFZ_102.jpg	FFX_130.jpg	FFX_130.jpg
137.14983487129211	1.9364211559295648	shape	0.733669996262	1.0	0.8	134.12592387199402	137.08534407615662	139.08625602722168	139.1163990497589	140.08593893051147	n/a	oval-horizontal.bmp	oval-horizontal.bmp	oval-vertical.bmp
140.18351292610168	1.9021201133728027	shape	0.999624013901	0.0	0.8	n/a	n/a	142.0856330394745	142.11640286445618	143.08613085746765	n/a	oval-horizontal.bmp	oval-vertical.bmp	oval-vertical.bmp
143.18338298797607	1.902706861495972	shape	0.866080999374	1.0	0.8	n/a	n/a	145.08608984947205	145.1165919303894	146.08606100082395	n/a	circle.bmp	circle.bmp	oval-vertical.bmp
146.1834888458252	1.90226411819458	shape	0.832772016525	1.0	0.8	n/a	n/a	148.08575296401978	148.116553068161	149.0861299037933	n/a	circle.bmp	oval-vertical.bmp	oval-vertical.bmp
149.18371105194092	1.902113914489746	shape	0.766186952591	1.0	0.8	n/a	n/a	151.08582496643066	151.1167938709259	152.08632588386536	n/a	oval-horizontal.bmp	circle.bmp	circle.bmp
152.18356895446777	1.902364015579224	shape	0.699518918991	1.0	0.8	n/a	n/a	154.085932970047	154.11669206619263	155.08626103401184	n/a	oval-horizontal.bmp	oval-horizontal.bmp	circle.bmp
158.1673698425293	1.9016361236572263	face	1.19974994659	1.0	0.8	155.1369240283966	158.0690279006958	160.06900596618652	160.10012888908386	161.06972885131836	n/a	20M_FE_O.jpg	21M_FE_O.jpg	21M_FE_O.jpg
161.20030689239502	1.868657112121582	face	0.765727996826	1.0	0.8	n/a	n/a	163.0689640045166	163.1002058982849	164.0698049068451	n/a	01F_AN_O.jpg	07F_AN_O.jpg	07F_AN_O.jpg
164.18382906913757	1.901896953582764	face	0.799226999283	1.0	0.8	n/a	n/a	166.08572602272034	166.11711192131042	167.08651304244995	n/a	FFX_139.jpg	FFZ_102.jpg	FFZ_102.jpg
167.21763586997986	1.8681890964508057	face	0.965923070908	1.0	0.8	n/a	n/a	169.08582496643066	169.11702704429626	170.0867359638214	n/a	23M_AN_O.jpg	23M_AN_O.jpg	22M_AN_O.jpg
170.20095801353455	1.8687570095062256	face	0.799435138702	1.0	0.8	n/a	n/a	172.06971502304077	172.100487947464	173.06996893882751	n/a	MAZ_146.jpg	MAZ_146.jpg	MAX_233.jpg
173.20093894004822	1.868297100067139	face	0.932799100876	1.0	0.8	n/a	n/a	175.06923604011536	175.10047698020935	176.07002902030945	n/a	15F_FE_O.jpg	15F_FE_O.jpg	16F_FE_O.jpg
179.13448905944824	1.935372829437256	shape	0.76636505127	1.0	0.8	176.1213550567627	179.0860939025879	181.0698618888855	181.100576877594	182.0702929496765	n/a	oval-horizontal.bmp	oval-vertical.bmp	oval-vertical.bmp
182.16764187812805	1.902527093887301	shape	0.766428947449	1.0	0.8	n/a	n/a	184.07016897201527	184.10078406333923	185.07035088539124	n/a	circle.bmp	oval-vertical.bmp	oval-vertical.bmp
185.16770386695865	1.9025640487670608	shape	0.733227968216	1.0	0.8	n/a	n/a	187.0702679157257	187.10085105896	188.070426940918	n/a	oval-horizontal.bmp	oval-horizontal.bmp	oval-vertical.bmp
188.16776299476624	1.9025828838348389	shape	0.699749946594	1.0	0.8	n/a	n/a	190.07034587860107	190.10086798667908	191.070494890213	n/a	oval-horizontal.bmp	oval-horizontal.bmp	circle.bmp
191.16780996322632	1.9021849632263184	shape	0.599795103073	1.0	0.8	n/a	n/a	193.06999492645264	193.1008288860321	194.0704379081726	n/a	circle.bmp	circle.bmp	oval-vertical.bmp
194.16799187660217	1.902107000350952	shape	0.599721908569	1.0	0.8	n/a	n/a	196.07009887695312	196.1009080410004	197.0706169605255	n/a	oval-horizontal.bmp	circle.bmp	circle.bmp
200.1682150363922	1.902145862579374	face	0.833416938782	1.0	0.8	197.13056588172915	200.0865380764008	202.0703608989716	202.10113096237183	203.07058596611023	n/a	FFX_54.jpg	FFX_54.jpg	FAX_51.jpg
203.2013530731201	1.868520975112944	face	0.766160964966	1.0	0.8	n/a	n/a	205.06987404823303	205.1010799407959	206.07071089744568	n/a	40M_FE_O.BMP	41M_FE_O.jpg	41M_FE_O.jpg
206.20144295692444	1.8685460090637207	face	0.799017190933	1.0	0.8	n/a	n/a	208.06998896598816	208.1011209487915	209.07072591781616	n/a	29M_AN_O.jpg	29M_AN_O.jpg	28M_AN_O.jpg
209.18502593040463	1.9021589756011963	face	0.966066837311	1.0	0.8	n/a	n/a	211.08718490600583	211.11790084838867	212.0874409675598	n/a	FFZ_18.jpg	FFZ_29.jpg	FFZ_29.jpg
212.2350800037384	1.834965944290161	face	0.965858221054	1.0	0.8	n/a	n/a	214.07004594802856	214.1012408733368	215.0708129405976	n/a	19F_AN_O.jpg	19F_AN_O.jpg	09F_AN_O.jpg
215.18487095832825	1.9021010398864744	face	0.832453966141	1.0	0.8	n/a	n/a	217.08697199821472	217.11805200576785	218.08775091171265	n/a	MFZ_132.jpg	MFZ_7.jpg	MFZ_7.jpg
221.15194392204285	1.9360740184783936	shape	0.767139911652	1.0	0.8	218.15058398246765	221.0871200561524	223.08801794052124	223.11819005012512	224.0877659320832	n/a	circle.bmp	oval-vertical.bmp	oval-vertical.bmp
224.18494486808777	1.902759075164795	shape	0.599901914597	1.0	0.8	n/a	n/a	226.08770394325256	226.1183359622956	227.0878529548645	n/a	oval-horizontal.bmp	oval-horizontal.bmp	circle.bmp
227.18515801429749	1.9025950431823448	shape	0.566519021988	1.0	0.8	n/a	n/a	229.08775305747983	229.1184120178223	230.08793592453003	n/a	oval-horizontal.bmp	oval-vertical.bmp	oval-vertical.bmp
230.18515586853027	1.9025971889495563	shape	0.799726963043	1.0	0.8	n/a	n/a	232.08775305747983	232.11840105056763	233.08795595169067	n/a	oval-horizontal.bmp	circle.bmp	circle.bmp
233.18525195121765	1.9026169776916504	shape	0.899765014648	1.0	0.8	n/a	n/a	235.0878689289093	235.1185438632965	236.08806085586548	n/a	oval-horizontal.bmp	oval-horizontal.bmp	oval-vertical.bmp
236.1853029727936	1.9024789333343504	shape	1.09970188141	1.0	0.8	n/a	n/a	238.087781906128	238.1185998916626	239.08795595169067	n/a	circle.bmp	circle.bmp	oval-vertical.bmp
242.1690368652344	1.9023711681365685	face	1.26649904251	1.0	0.8	239.1420760154724	242.07079195976257	244.07140803337097	244.10194087028503	245.07138895988464	n/a	20M_FE_O.jpg	21M_FE_O.jpg	21M_FE_O.jpg
245.2188329696656	1.868957042694035	face	0.832695007324	1.0	0.8	n/a	n/a	247.0877900123596	247.11862802505493	248.08829188346863	n/a	07F_AN_O.jpg	07F_AN_O.jpg	01F_AN_O.jpg
248.2188830375672	1.869027853012028	face	0.999336004257	1.0	0.8	n/a	n/a	250.0879108905792	250.1186330318451	251.08839392662048	n/a	FFZ_102.jpg	FFZ_102.jpg	FFX_139.jpg
251.23576188087463	1.835165977477999	face	0.799406051636	1.0	0.8	n/a	n/a	253.07092785835263	253.1020040512085	254.07171297073364	n/a	22M_AN_O.jpg	23M_AN_O.jpg	23M_AN_O.jpg
254.2027649879456	1.868094921112004	face	0.632508039474	1.0	0.8	n/a	n/a	256.0708599090576	256.1020369529724	257.0716679096222	n/a	MAX_233.jpg	MAZ_146.jpg	MAZ_146.jpg
257.2192199230194	1.8687670230866047	face	0.899413108826	1.0	0.8	n/a	n/a	259.087986946106	259.11884689331055	260.08854484558105	n/a	15F_FE_O.jpg	15F_FE_O.jpg	16F_FE_O.jpg
263.1529688835144	1.935671091079712	shape	0.667144775391	1.0	0.8	260.15357089042664	263.0879330635071	265.0886399745941	265.11900305747986	266.088604927063	n/a	oval-horizontal.bmp	oval-horizontal.bmp	oval-vertical.bmp
266.1858298778534	1.902318000793457	shape	0.799808979034	0.0	0.8	n/a	n/a	268.08814787864685	268.1189398765564	269.08856296539307	n/a	oval-horizontal.bmp	oval-vertical.bmp	oval-vertical.bmp
269.1857578754425	1.9023411273956297	shape	0.79959487915	1.0	0.8	n/a	n/a	271.08809900283813	271.1189999580384	272.08874702453613	n/a	circle.bmp	circle.bmp	oval-vertical.bmp
272.1858599185944	1.9023349285125164	shape	0.766222953796	1.0	0.8	n/a	n/a	274.08819484710693	274.11921095848083	275.0886199474335	n/a	circle.bmp	oval-vertical.bmp	oval-vertical.bmp
275.18599700927734	1.9022178649902344	shape	0.932924985886	1.0	0.8	n/a	n/a	277.0882148742676	277.1192848682404	278.088702917099	n/a	oval-horizontal.bmp	circle.bmp	circle.bmp
278.18602991104126	1.902703046798763	shape	0.633156061172	1.0	0.8	n/a	n/a	280.08873295784	280.1193640232086	281.08873295784	n/a	oval-horizontal.bmp	oval-horizontal.bmp	circle.bmp
284.13601899147034	1.9354500770568848	face	0.99920296669	1.0	0.8	281.1451120376587	284.0714359283447	286.0714690685272	286.1025779247284	287.0722050666809	n/a	FFZ_18.jpg	FAZ_129.jpg	FAZ_129.jpg
287.2197768688202	1.8683249950408936	face	1.03229904175	1.0	0.8	n/a	n/a	289.0881018638611	289.1193008422852	290.0888500213623	n/a	20M_FE_O.jpg	24M_FE_O.jpg	24M_FE_O.jpg
290.20300102233887	1.868501901626587	face	1.36578798294	1.0	0.8	n/a	n/a	292.07150292396545	292.10268998146057	293.0722670555115	n/a	FAZ_23.jpg	FAX_25.jpg	FAX_25.jpg
293.2199409008026	1.8683099746704104	face	0.832415103912	1.0	0.8	n/a	n/a	295.088250875473	295.1195809841156	296.08896493911743	n/a	33M_FE_O.jpg	33M_FE_O.jpg	35M_FE_O.jpg
296.2364020347595	1.8351750373840328	face	0.865667104721	1.0	0.8	n/a	n/a	298.07157707214355	298.1027958393097	299.07241797447205	n/a	01F_AN_O.jpg	01F_AN_O.jpg	02F_AN_O.jpg
299.1863160133362	1.902405023574829	face	0.899292945862	1.0	0.8	n/a	n/a	301.088721036911	301.11970686912537	302.08921694755554	n/a	MFZ_132.jpg	MFZ_132.jpg	MFZ_120.jpg
305.1531789302826	1.936269998550415	shape	0.833599805832	1.0	0.8	302.15357995033264	305.088613986969	307.089448928833	307.1196389198303	308.08916902542114	n/a	oval-horizontal.bmp	oval-vertical.bmp	oval-vertical.bmp
308.1865649223328	1.9027030467986488	shape	0.632848978043	1.0	0.8	n/a	n/a	310.08926796913147	310.11969900131226	311.08924198150635	n/a	circle.bmp	oval-vertical.bmp	oval-vertical.bmp
311.1866228580475	1.9027340412139893	shape	0.666465997696	1.0	0.8	n/a	n/a	313.0893568992615	313.1197440624237	314.08926796913147	n/a	oval-horizontal.bmp	oval-horizontal.bmp	oval-vertical.bmp
314.18655490875244	1.902482032775879	shape	0.666544914246	1.0	0.8	n/a	n/a	316.0890369415283	316.1197760105133	317.0893590450287	n/a	oval-horizontal.bmp	oval-horizontal.bmp	circle.bmp
317.1867079734802	1.90264892578125	shape	1.23273992538	1.0	0.8	n/a	n/a	319.0893568992615	319.1198239326477	320.0893828868866	n/a	circle.bmp	circle.bmp	oval-vertical.bmp
320.18671894073486	1.9028220176696773	shape	0.666506052017	1.0	0.8	n/a	n/a	322.08954095840454	322.119992017746	323.0897400379181	n/a	oval-horizontal.bmp	circle.bmp	circle.bmp
326.1705529689789	1.9016339778900144	face	1.2997648716	1.0	0.8	323.1475489139557	326.0721559524536	328.0721869468689	328.1033148765564	329.0728919506073	n/a	17F_FE_O.jpg	18F_FE_O.jpg	18F_FE_O.jpg
329.2203299999237	1.8684959411621087	face	0.598984956741	1.0	0.8	n/a	n/a	331.0888259410858	331.1200270652771	332.08958292007446	n/a	42M_AN_O.jpg	43M_AN_O.jpg	43M_AN_O.jpg
332.23701095581055	1.8351399898529053	face	0.799096107483	1.0	0.8	n/a	n/a	334.07215094566345	334.1033899784088	335.0729908943176	n/a	31M_FE_O.jpg	31M_FE_O.jpg	32M_FE_O.jpg
335.18712997436523	1.901890993118286	face	0.765757083893	1.0	0.8	n/a	n/a	337.0890209674835	337.1201040744781	338.0896759033203	n/a	FAZ_212.jpg	FFZ_236.jpg	FFZ_236.jpg
338.23726892471313	1.83503007888794	face	0.865672111511	1.0	0.8	n/a	n/a	340.0722990036011	340.1034860610962	341.07306385040283	n/a	06F_FE_O.jpg	06F_FE_O.jpg	08F_FE_O.jpg
341.18712306022644	1.901980876922608	face	0.932705879211	1.0	0.8	n/a	n/a	343.08910393714905	343.12022590637207	344.08992886543274	n/a	MAZ_128.jpg	MAZ_128.jpg	MAX_39.jpg
347.1370630264282	1.93606185913086	shape	1.36593914032	1.0	0.8	344.1567339897156	347.08920192718506	349.0731248855591	349.1036379337311	350.0732319355011	n/a	circle.bmp	oval-vertical.bmp	oval-vertical.bmp
350.17069005966187	1.9022109508514404	shape	0.732864141464	1.0	0.8	n/a	n/a	352.0729010105133	352.103700876236	353.07331705093384	n/a	oval-horizontal.bmp	oval-horizontal.bmp	circle.bmp
353.17079305648804	1.9024639129638672	shape	0.999880075455	1.0	0.8	n/a	n/a	355.0732569694519	355.10384607315063	356.0734169483185	n/a	oval-horizontal.bmp	oval-vertical.bmp	oval-vertical.bmp
356.1874549388885	1.902117967605648	shape	0.866328954697	1.0	0.8	n/a	n/a	358.08957290649414	358.1204299926758	359.0900869369507	n/a	oval-horizontal.bmp	circle.bmp	circle.bmp
359.1874408721924	1.9024419784545896	shape	0.766217947006	0.0	0.8	n/a	n/a	361.089882850647	361.1205089092255	362.0900690555573	n/a	oval-horizontal.bmp	oval-horizontal.bmp	oval-vertical.bmp
362.187490940094	1.902169942855778	shape	1.29947686195	1.0	0.8	n/a	n/a	364.0896608829498	364.120549917221	365.0901629924774	n/a	circle.bmp	circle.bmp	oval-vertical.bmp
368.1710169315338	1.901811122894287	face	0.733280897141	1.0	0.8	365.1530649662018	368.0896520614624	370.0728280544281	370.1039619445801	371.0737719535828	n/a	FFZ_18.jpg	FAZ_129.jpg	FAZ_129.jpg
371.22130703926086	1.868152856826839	face	0.865717887878	1.0	0.8	n/a	n/a	373.0894598960877	373.1206629276276	374.0903708934784	n/a	20M_FE_O.jpg	24M_FE_O.jpg	24M_FE_O.jpg
374.2210278511048	1.868512153625432	face	0.632336854935	1.0	0.8	n/a	n/a	376.0895400047302	376.12073707580566	377.09043407440186	n/a	FAZ_23.jpg	FAX_25.jpg	FAX_25.jpg
377.2376489639282	1.83558988571167	face	0.86572599411	1.0	0.8	n/a	n/a	379.0732388496399	379.1041748523712	380.073667049408	n/a	33M_FE_O.jpg	33M_FE_O.jpg	35M_FE_O.jpg
380.221097946167	1.8685460090637207	face	1.09904503822	1.0	0.8	n/a	n/a	382.0896439552307	382.12084889411926	383.0907819271088	n/a	01F_AN_O.jpg	01F_AN_O.jpg	02F_AN_O.jpg
383.2213099002838	1.8688850402832031	face	0.865818023682	1.0	0.8	n/a	n/a	385.090194940567	385.1209399700165	386.09044194221497	394.47402000427246	MFZ_132.jpg	MFZ_132.jpg	MFZ_120.jpg
