onset	duration	trial_type	response_time	accuracy_binarized	tr_seconds	cueStartTime	cueEndTime	trialEndTime	fixStartTime	fixEndTime	runEndTime	stimLeft	stimTop	stimRight
11.0603621006	1.968846082699999	shape	1.08674097061	1.0	0.8	8.02425098419	11.0123531818	13.0292081833	13.0338611603	14.0276741982	n/a	oval-horizontal.bmp	oval-horizontal.bmp	oval-vertical.bmp
14.1383361816	1.8890089989	shape	1.05104088783	1.0	0.8	n/a	n/a	16.0273451805	16.0313851833	17.0273060799	n/a	oval-horizontal.bmp	oval-vertical.bmp	oval-vertical.bmp
17.1275219917	1.9000651837000009	shape	0.870213985443	1.0	0.8	n/a	n/a	19.0275871754	19.0310671329	20.0275270939	n/a	circle.bmp	circle.bmp	oval-vertical.bmp
20.1349031925	1.8926517963999991	shape	1.08463001251	1.0	0.8	n/a	n/a	22.0275549889	22.0311791897	23.0268051624	n/a	circle.bmp	oval-vertical.bmp	oval-vertical.bmp
23.1322641373	1.8944940566999973	shape	1.16632413864	1.0	0.8	n/a	n/a	25.026758194	25.0307121277	26.0266931057	n/a	oval-horizontal.bmp	circle.bmp	circle.bmp
26.124682188	1.9024329185999989	shape	0.945276021957	1.0	0.8	n/a	n/a	28.0271151066	28.0311460495	29.0260241032	n/a	oval-horizontal.bmp	oval-horizontal.bmp	circle.bmp
32.0882430077	1.9380409716999976	face	1.34678506851	1.0	0.8	29.1027510166	32.0263850689	34.0262839794	34.0313341618	35.0255789757	n/a	FAZ_23.jpg	FAZ_23.jpg	FAX_43.jpg
35.1634011269	1.862805843300002	face	1.55339598656	1.0	0.8	n/a	n/a	37.0262069702	37.0299451351	38.0255050659	n/a	26M_FE_O.jpg	26M_FE_O.jpg	27M_FE_O.BMP
38.1489720345	1.875957965800005	face	1.55302190781	1.0	0.8	n/a	n/a	40.0249300003	40.0291371346	41.0252799988	n/a	MFX_16.jpg	MFZ_50.jpg	MFZ_50.jpg
41.1786031723	1.8463048934999973	face	1.03501701355	1.0	0.8	n/a	n/a	43.0249080658	43.0285949707	44.0236520767	n/a	09F_AN_O.jpg	09F_AN_O.jpg	10F_AN_O.jpg
44.1630830765	1.8611481188999968	face	1.56740999222	1.0	0.8	n/a	n/a	46.0242311954	46.0278360844	47.023802042	n/a	38M_AN_O.BMP	39M_AN_O.jpg	39M_AN_O.jpg
47.1396770477	1.884324073800002	face	1.24435305595	1.0	0.8	n/a	n/a	49.0240011215	49.027919054	50.0232601166	n/a	FFZ_102.jpg	FFX_130.jpg	FFX_130.jpg
53.0604910851	1.9628629684000032	shape	1.01940703392	1.0	0.8	50.0953741074	53.0235311985	55.0233540535	55.0278270245	56.0220210552	n/a	oval-horizontal.bmp	oval-vertical.bmp	oval-vertical.bmp
56.1162290573	1.9067320823999976	shape	1.36093902588	1.0	0.8	n/a	n/a	58.0229611397	58.0266060829	59.0220651627	n/a	circle.bmp	oval-vertical.bmp	oval-vertical.bmp
59.1173000336	1.905076026899998	shape	0.977368831635	1.0	0.8	n/a	n/a	61.0223760605	61.0261521339	62.0222370625	n/a	oval-horizontal.bmp	oval-horizontal.bmp	oval-vertical.bmp
62.1186871529	1.9033679961999963	shape	0.659951210022	1.0	0.8	n/a	n/a	64.0220551491	64.0258879662	65.0218930244	n/a	oval-horizontal.bmp	oval-horizontal.bmp	circle.bmp
65.117249012	1.8986611365999977	shape	0.78640794754	1.0	0.8	n/a	n/a	67.0159101486	67.0195920467	68.0207531452	n/a	circle.bmp	circle.bmp	oval-vertical.bmp
68.1215071678	1.899856805799999	shape	0.740377187729	1.0	0.8	n/a	n/a	70.0213639736	70.0249071121	71.020922184	n/a	oval-horizontal.bmp	circle.bmp	circle.bmp
74.1098971367	1.9112980366000016	face	1.50132894516	1.0	0.8	71.0942151546	74.0205321312	76.0211951733	76.0261909962	77.0201551914	n/a	03F_FE_O.jpg	05F_FE_O.jpg	05F_FE_O.jpg
77.1399431229	1.8760209083000063	face	0.936267137527	1.0	0.8	n/a	n/a	79.0159640312	79.0195920467	80.0153441429	n/a	FAZ_32.jpg	FAZ_32.jpg	FAX_45.jpg
80.1348850727	1.881177902199994	face	1.65387582779	1.0	0.8	n/a	n/a	82.0160629749	82.0199711323	83.0154390335	n/a	MAZ_128.jpg	MAZ_101.jpg	MAZ_101.jpg
83.1544480324	1.8658120631999964	face	1.07116699219	1.0	0.8	n/a	n/a	85.0202600956	85.0238480568	86.0195240974	n/a	11F_AN_O.jpg	11F_AN_O.jpg	12F_AN_O.jpg
86.1564900875	1.863188981999997	face	1.1737601757	1.0	0.8	n/a	n/a	88.0196790695	88.0232861042	89.0182271004	n/a	26M_FE_O.jpg	33M_FE_O.jpg	33M_FE_O.jpg
89.1354591846	1.8838520051000105	face	1.07360386848	1.0	0.8	n/a	n/a	91.0193111897	91.0229899883	92.0181040764	n/a	MFZ_132.jpg	MFZ_132.jpg	MFZ_120.jpg
95.0543780327	1.9643590449999948	shape	0.706721067429	1.0	0.8	92.092302084	95.0181760788	97.0187370777	97.0231320858	98.0178580284	n/a	circle.bmp	oval-vertical.bmp	oval-vertical.bmp
98.1214051247	1.8966000082999983	shape	0.603286027908	1.0	0.8	n/a	n/a	100.018005133	100.021883965	101.017769098	n/a	oval-horizontal.bmp	oval-horizontal.bmp	circle.bmp
101.113813162	1.9043128490000072	shape	0.672147989273	1.0	0.8	n/a	n/a	103.018126011	103.021982193	104.016955137	n/a	oval-horizontal.bmp	oval-vertical.bmp	oval-vertical.bmp
104.116258144	1.901196002999996	shape	0.605372905731	1.0	0.8	n/a	n/a	106.017454147	106.021052122	107.017287016	n/a	oval-horizontal.bmp	circle.bmp	circle.bmp
107.121086121	1.8959059709999904	shape	1.05497908592	1.0	0.8	n/a	n/a	109.016992092	109.020704985	110.016416073	n/a	oval-horizontal.bmp	oval-horizontal.bmp	oval-vertical.bmp
110.116067171	1.9012818340000024	shape	0.971812009811	1.0	0.8	n/a	n/a	112.017349005	112.021233082	113.016731024	n/a	circle.bmp	circle.bmp	oval-vertical.bmp
116.070310116	1.9464218610000048	face	0.720818996429	1.0	0.8	113.091622114	116.015617132	118.016731977	118.021296978	119.015465021	n/a	FAZ_23.jpg	FAZ_23.jpg	FAX_43.jpg
119.141048193	1.8748669619999987	face	1.03679490089	1.0	0.8	n/a	n/a	121.015915155	121.019494057	122.015419006	n/a	26M_FE_O.jpg	26M_FE_O.jpg	27M_FE_O.BMP
122.134370089	1.881082058000004	face	0.854225873947	1.0	0.8	n/a	n/a	124.015452147	124.019649029	125.015334129	n/a	MFZ_50.jpg	MFZ_50.jpg	MFX_16.jpg
125.16469717	1.851271867999997	face	1.07051205635	1.0	0.8	n/a	n/a	127.015969038	127.019617081	128.015448093	n/a	10F_AN_O.jpg	09F_AN_O.jpg	09F_AN_O.jpg
128.148540974	1.8669672009999945	face	1.51975512505	1.0	0.8	n/a	n/a	130.015508175	130.019438982	131.015112162	n/a	38M_AN_O.BMP	39M_AN_O.jpg	39M_AN_O.jpg
131.142794132	1.8730888369999832	face	1.30399608612	1.0	0.8	n/a	n/a	133.015882969	133.019585133	134.014325142	n/a	FFZ_102.jpg	FFX_130.jpg	FFX_130.jpg
137.067756176	1.963373899000004	shape	0.835628986359	1.0	0.8	134.096544027	137.030513048	139.031130075	139.035713196	140.030317068	n/a	oval-horizontal.bmp	oval-horizontal.bmp	oval-vertical.bmp
140.136609077	1.8942790039999973	shape	1.02108097076	1.0	0.8	n/a	n/a	142.030888081	142.034567118	143.030114174	n/a	oval-horizontal.bmp	oval-vertical.bmp	oval-vertical.bmp
143.14201808	1.887984036999996	shape	0.753333091736	1.0	0.8	n/a	n/a	145.030002117	145.033668995	146.030004978	n/a	circle.bmp	circle.bmp	oval-vertical.bmp
146.142157078	1.8874530790000108	shape	0.602730989456	1.0	0.8	n/a	n/a	148.029610157	148.033756971	149.029474974	n/a	circle.bmp	oval-vertical.bmp	oval-vertical.bmp
149.136917114	1.8931460379999976	shape	0.670562982559	1.0	0.8	n/a	n/a	151.030063152	151.033703089	152.028694153	n/a	oval-horizontal.bmp	circle.bmp	circle.bmp
152.134857178	1.894341945000008	shape	0.721369028091	1.0	0.8	n/a	n/a	154.029199123	154.03284502	155.028545141	n/a	oval-horizontal.bmp	oval-horizontal.bmp	circle.bmp
158.108666182	1.919887781	face	1.57006502151	1.0	0.8	155.112488985	158.028340101	160.028553963	160.033545017	161.028388977	n/a	20M_FE_O.jpg	21M_FE_O.jpg	21M_FE_O.jpg
161.184043169	1.844604014999988	face	1.25288009644	1.0	0.8	n/a	n/a	163.028647184	163.032427073	164.027721167	n/a	01F_AN_O.jpg	07F_AN_O.jpg	07F_AN_O.jpg
164.15476203	1.8732731339999875	face	1.76401400566	1.0	0.8	n/a	n/a	166.028035164	166.031687021	167.027513027	n/a	FFX_139.jpg	FFZ_102.jpg	FFZ_102.jpg
167.174736023	1.8528809549999887	face	1.20313501358	1.0	0.8	n/a	n/a	169.027616978	169.031304121	170.026942968	n/a	23M_AN_O.jpg	23M_AN_O.jpg	22M_AN_O.jpg
170.157639027	1.8696780200000087	face	1.23529005051	1.0	0.8	n/a	n/a	172.027317047	172.031499147	173.026802063	n/a	MAZ_146.jpg	MAZ_146.jpg	MAX_233.jpg
173.172621965	1.85456514400002	face	1.43670105934	1.0	0.8	n/a	n/a	175.027187109	175.030961037	176.026384115	n/a	15F_FE_O.jpg	15F_FE_O.jpg	16F_FE_O.jpg
179.063579082	1.9631519320000168	shape	0.867609977722	1.0	0.8	176.11562109	179.026255131	181.026731014	181.031234026	182.025614977	n/a	oval-horizontal.bmp	oval-vertical.bmp	oval-vertical.bmp
182.137586117	1.888223885999992	shape	0.59800195694	1.0	0.8	n/a	n/a	184.025810003	184.029896975	185.02571106	n/a	circle.bmp	oval-vertical.bmp	oval-vertical.bmp
185.139273167	1.8864688870000064	shape	0.831581115723	1.0	0.8	n/a	n/a	187.025742054	187.029443026	188.025923967	n/a	oval-horizontal.bmp	oval-horizontal.bmp	oval-vertical.bmp
188.137742043	1.887823104000006	shape	0.713734149933	1.0	0.8	n/a	n/a	190.025565147	190.029206991	191.024266005	n/a	oval-horizontal.bmp	oval-horizontal.bmp	circle.bmp
191.137531996	1.8878180979999968	shape	0.646864891052	1.0	0.8	n/a	n/a	193.025350094	193.028989077	194.024096012	n/a	circle.bmp	circle.bmp	oval-vertical.bmp
194.135446072	1.889698027999998	shape	0.829966068268	1.0	0.8	n/a	n/a	196.0251441	196.029219151	197.023930073	n/a	oval-horizontal.bmp	circle.bmp	circle.bmp
200.084040165	1.9401450160000024	face	1.02900099754	1.0	0.8	197.111186028	200.023243189	202.024185181	202.028987169	203.023795128	n/a	FFX_54.jpg	FFX_54.jpg	FAX_51.jpg
203.169978142	1.8537540430000088	face	1.56122708321	1.0	0.8	n/a	n/a	205.023732185	205.02773118	206.022875071	n/a	40M_FE_O.BMP	41M_FE_O.jpg	41M_FE_O.jpg
206.174084187	1.8498058309999976	face	1.02110695839	1.0	0.8	n/a	n/a	208.023890018	208.027662992	209.022567987	n/a	29M_AN_O.jpg	29M_AN_O.jpg	28M_AN_O.jpg
209.153731108	1.869291067000006	face	1.66208004951	1.0	0.8	n/a	n/a	211.023022175	211.027068138	212.02235198	n/a	FFZ_18.jpg	FFZ_29.jpg	FFZ_29.jpg
212.177281141	1.84549784699999	face	1.10254096985	1.0	0.8	n/a	n/a	214.022778988	214.026484966	215.021835089	n/a	19F_AN_O.jpg	19F_AN_O.jpg	09F_AN_O.jpg
215.151997089	1.8707211020000043	face	1.19105410576	1.0	0.8	n/a	n/a	217.022718191	217.026808977	218.022001028	n/a	MFZ_132.jpg	MFZ_7.jpg	MFZ_7.jpg
221.060294151	1.9612889290000053	shape	0.885342121124	1.0	0.8	218.114009142	221.021636009	223.02158308	223.026160002	224.020915985	n/a	circle.bmp	oval-vertical.bmp	oval-vertical.bmp
224.135256052	1.886273146000008	shape	0.59371304512	1.0	0.8	n/a	n/a	226.021529198	226.025184155	227.020586967	n/a	oval-horizontal.bmp	oval-horizontal.bmp	circle.bmp
227.135236979	1.8858151429999737	shape	0.95904302597	1.0	0.8	n/a	n/a	229.021052122	229.024785995	230.020429134	n/a	oval-horizontal.bmp	oval-vertical.bmp	oval-vertical.bmp
230.135205984	1.8845350739999844	shape	0.659925937653	1.0	0.8	n/a	n/a	232.019741058	232.023488045	233.020410061	n/a	oval-horizontal.bmp	circle.bmp	circle.bmp
233.139384985	1.880887032000004	shape	0.842777013779	1.0	0.8	n/a	n/a	235.020272017	235.023910046	236.019214153	n/a	oval-horizontal.bmp	oval-horizontal.bmp	oval-vertical.bmp
236.133354187	1.8872048849999885	shape	0.759660005569	1.0	0.8	n/a	n/a	238.020559072	238.024195194	239.020158052	n/a	circle.bmp	circle.bmp	oval-vertical.bmp
242.098227024	1.921666144999989	face	1.84294080734	1.0	0.8	239.112388134	242.019066095	244.019893169	244.024945974	245.018617153	n/a	20M_FE_O.jpg	21M_FE_O.jpg	21M_FE_O.jpg
245.172473192	1.84681296399998	face	0.8537940979	1.0	0.8	n/a	n/a	247.019286156	247.022912979	248.018371105	n/a	07F_AN_O.jpg	07F_AN_O.jpg	01F_AN_O.jpg
248.15238905	1.866390942999999	face	1.14145708084	1.0	0.8	n/a	n/a	250.018779993	250.022241116	251.017876148	n/a	FFZ_102.jpg	FFZ_102.jpg	FFX_139.jpg
251.176141024	1.8427841660000013	face	n/a	0.0	0.8	n/a	n/a	253.01892519	253.022603035	254.017830133	n/a	22M_AN_O.jpg	23M_AN_O.jpg	23M_AN_O.jpg
254.149726152	1.8685250289999829	face	1.20687103271	1.0	0.8	n/a	n/a	256.018251181	256.022386074	257.017227173	n/a	MAX_233.jpg	MAZ_146.jpg	MAZ_146.jpg
257.170948029	1.8470480440000188	face	1.15479588509	1.0	0.8	n/a	n/a	259.017996073	259.021842003	260.016119003	n/a	15F_FE_O.jpg	15F_FE_O.jpg	16F_FE_O.jpg
263.053584099	1.9634549620000143	shape	0.68980383873	1.0	0.8	260.110728979	263.016542196	265.017039061	265.021646976	266.016153097	n/a	oval-horizontal.bmp	oval-horizontal.bmp	oval-vertical.bmp
266.132317066	1.884149075000039	shape	0.840152025223	1.0	0.8	n/a	n/a	268.016466141	268.020344973	269.016065121	n/a	oval-horizontal.bmp	oval-vertical.bmp	oval-vertical.bmp
269.137341976	1.8792471890000115	shape	0.606163978577	1.0	0.8	n/a	n/a	271.016589165	271.020334005	272.015227079	n/a	circle.bmp	circle.bmp	oval-vertical.bmp
272.13320899	1.882588147999968	shape	0.755674123764	1.0	0.8	n/a	n/a	274.015797138	274.019886017	275.015308142	n/a	circle.bmp	oval-vertical.bmp	oval-vertical.bmp
275.132164001	1.9001600750000307	shape	0.638575077057	1.0	0.8	n/a	n/a	277.032324076	277.035993099	278.015484095	n/a	oval-horizontal.bmp	circle.bmp	circle.bmp
278.131497145	1.900245904999963	shape	0.605018854141	1.0	0.8	n/a	n/a	280.03174305	280.035647154	281.03126812	n/a	oval-horizontal.bmp	oval-horizontal.bmp	circle.bmp
284.094438076	1.937040090999972	face	1.25397801399	1.0	0.8	281.124272108	284.031260014	286.031478167	286.036056042	287.030897141	n/a	FFZ_18.jpg	FAZ_129.jpg	FAZ_129.jpg
287.192054987	1.8396711350000032	face	1.65341806412	1.0	0.8	n/a	n/a	289.031726122	289.035344124	290.030346155	n/a	20M_FE_O.jpg	24M_FE_O.jpg	24M_FE_O.jpg
290.164862156	1.8658478259999924	face	0.954523086548	1.0	0.8	n/a	n/a	292.030709982	292.034574032	293.029539108	n/a	FAZ_23.jpg	FAX_25.jpg	FAX_25.jpg
293.188770056	1.8415119649999951	face	0.802706956863	1.0	0.8	n/a	n/a	295.030282021	295.034133196	296.029916048	n/a	33M_FE_O.jpg	33M_FE_O.jpg	35M_FE_O.jpg
296.189882994	1.8410150999999928	face	1.39998483658	1.0	0.8	n/a	n/a	298.030898094	298.034569025	299.029452085	n/a	01F_AN_O.jpg	01F_AN_O.jpg	02F_AN_O.jpg
299.162715197	1.8673069469999743	face	1.01921606064	1.0	0.8	n/a	n/a	301.030022144	301.033691168	302.028937101	n/a	MFZ_132.jpg	MFZ_132.jpg	MFZ_120.jpg
305.064917088	1.9638431070000024	shape	0.719934940338	1.0	0.8	302.129225969	305.028355122	307.028760195	307.033468962	308.028074026	n/a	oval-horizontal.bmp	oval-vertical.bmp	oval-vertical.bmp
308.145395041	1.8831729880000123	shape	0.752445936203	1.0	0.8	n/a	n/a	310.028568029	310.032181978	311.027906179	n/a	circle.bmp	oval-vertical.bmp	oval-vertical.bmp
311.144942999	1.8835461139999552	shape	0.652940988541	1.0	0.8	n/a	n/a	313.028489113	313.032167196	314.027588129	n/a	oval-horizontal.bmp	oval-horizontal.bmp	oval-vertical.bmp
314.148214102	1.879729032	shape	0.685183048248	1.0	0.8	n/a	n/a	316.027943134	316.032004118	317.027475119	n/a	oval-horizontal.bmp	oval-horizontal.bmp	circle.bmp
317.148826122	1.879401922999989	shape	0.720682859421	1.0	0.8	n/a	n/a	319.028228045	319.032132149	320.026738167	n/a	circle.bmp	circle.bmp	oval-vertical.bmp
320.150051117	1.8773288730000104	shape	0.787562847137	1.0	0.8	n/a	n/a	322.02737999	322.030908108	323.026830196	n/a	oval-horizontal.bmp	circle.bmp	circle.bmp
326.112759113	1.9141938690000304	face	1.5861389637	1.0	0.8	323.124304056	326.026336193	328.026952982	328.031885147	329.025983095	n/a	17F_FE_O.jpg	18F_FE_O.jpg	18F_FE_O.jpg
329.188735962	1.837687014999972	face	1.40242600441	1.0	0.8	n/a	n/a	331.026422977	331.030069113	332.025546074	n/a	42M_AN_O.jpg	43M_AN_O.jpg	43M_AN_O.jpg
332.186459064	1.8395609859999809	face	1.16721200943	1.0	0.8	n/a	n/a	334.02602005	334.030004978	335.025292158	n/a	31M_FE_O.jpg	31M_FE_O.jpg	32M_FE_O.jpg
335.170618057	1.855330944000002	face	1.21372199059	1.0	0.8	n/a	n/a	337.025949001	337.029610157	338.024785995	n/a	FAZ_212.jpg	FFZ_236.jpg	FFZ_236.jpg
338.190355062	1.8350729950000184	face	1.01990199089	1.0	0.8	n/a	n/a	340.025428057	340.029674053	341.024451971	n/a	06F_FE_O.jpg	06F_FE_O.jpg	08F_FE_O.jpg
341.161305189	1.8634917739999537	face	1.11914205551	1.0	0.8	n/a	n/a	343.024796963	343.028463125	344.024500132	n/a	MAZ_128.jpg	MAZ_128.jpg	MAX_39.jpg
347.062162161	1.9620118139999927	shape	0.78523683548	1.0	0.8	344.121973991	347.02376914	349.024173975	349.028936148	350.023471117	n/a	circle.bmp	oval-vertical.bmp	oval-vertical.bmp
350.14550209	1.87806987800002	shape	0.570155143738	1.0	0.8	n/a	n/a	352.023571968	352.027312994	353.023259163	n/a	oval-horizontal.bmp	oval-horizontal.bmp	circle.bmp
353.144567013	1.8789479729999807	shape	0.869596004486	1.0	0.8	n/a	n/a	355.023514986	355.027132988	356.022228003	n/a	oval-horizontal.bmp	oval-vertical.bmp	oval-vertical.bmp
356.146342993	1.876808165999989	shape	0.670866012573	1.0	0.8	n/a	n/a	358.023151159	358.026780128	359.023337126	n/a	oval-horizontal.bmp	circle.bmp	circle.bmp
359.150231123	1.8725130559999457	shape	0.564279794693	1.0	0.8	n/a	n/a	361.022744179	361.026404142	362.022859097	n/a	oval-horizontal.bmp	oval-horizontal.bmp	oval-vertical.bmp
362.14509511	1.8773059839999744	shape	0.620101928711	1.0	0.8	n/a	n/a	364.022401094	364.026124001	365.021806002	n/a	circle.bmp	circle.bmp	oval-vertical.bmp
368.077665091	1.94460392000002	face	0.837299108505	1.0	0.8	365.126062155	368.021150112	370.022269011	370.026889086	371.021120071	n/a	FFZ_18.jpg	FAZ_129.jpg	FAZ_129.jpg
371.187014103	1.834583997999971	face	1.21943092346	1.0	0.8	n/a	n/a	373.021598101	373.025305986	374.021258116	n/a	20M_FE_O.jpg	24M_FE_O.jpg	24M_FE_O.jpg
374.160448074	1.8606729510000264	face	0.902472019196	1.0	0.8	n/a	n/a	376.021121025	376.025578976	377.020534992	n/a	FAZ_23.jpg	FAX_25.jpg	FAX_25.jpg
377.185839176	1.835837841	face	0.879078149796	1.0	0.8	n/a	n/a	379.021677017	379.025885105	380.02028203	n/a	33M_FE_O.jpg	33M_FE_O.jpg	35M_FE_O.jpg
380.192425966	1.828311205000034	face	1.31984782219	1.0	0.8	n/a	n/a	382.020737171	382.024335146	383.020203114	n/a	01F_AN_O.jpg	01F_AN_O.jpg	02F_AN_O.jpg
383.159924984	1.860218048000036	face	1.00356602669	1.0	0.8	n/a	n/a	385.020143032	385.023779154	386.019546032	394.418845177	MFZ_132.jpg	MFZ_132.jpg	MFZ_120.jpg
