onset	duration	trial_type	response_time	accuracy_binarized	tr_seconds	cueStartTime	cueEndTime	trialEndTime	fixStartTime	fixEndTime	runEndTime	stimLeft	stimTop	stimRight
11.10761785507202	1.967334032058716	shape	1.13359189034	1.0	0.8	8.065299987792969	11.058012008666992	13.074951887130736	13.107536792755129	14.07470989227295	n/a	oval-horizontal.bmp	oval-horizontal.bmp	oval-vertical.bmp
14.174506902694702	1.9009270668029783	shape	1.46723389626	1.0	0.8	n/a	n/a	16.07543396949768	16.10763692855835	17.07459592819214	n/a	oval-horizontal.bmp	oval-vertical.bmp	oval-vertical.bmp
17.15778684616089	1.9362680912017824	shape	0.800003051758	1.0	0.8	n/a	n/a	19.09405493736267	19.124668836593628	20.094435930252075	n/a	circle.bmp	circle.bmp	oval-vertical.bmp
20.194010972976685	1.900306940078736	shape	0.765976905823	1.0	0.8	n/a	n/a	22.09431791305542	22.12468099594116	23.09428882598877	n/a	circle.bmp	oval-vertical.bmp	oval-vertical.bmp
23.174855947494507	1.9024338722229004	shape	0.86555814743	1.0	0.8	n/a	n/a	25.077289819717407	25.108024835586548	26.077658891677856	n/a	oval-horizontal.bmp	circle.bmp	circle.bmp
26.15829086303711	1.936095952987671	shape	1.13280010223	1.0	0.8	n/a	n/a	28.09438681602478	28.12475681304932	29.09451198577881	n/a	oval-horizontal.bmp	oval-horizontal.bmp	circle.bmp
32.158329010009766	1.935935020446777	face	0.832849979401	1.0	0.8	29.14659094810486	32.07722783088684	34.09426403045654	34.12476682662964	35.09444880485535	n/a	FAZ_23.jpg	FAZ_23.jpg	FAX_43.jpg
35.225162982940674	1.8687329292297363	face	0.832482099533	1.0	0.8	n/a	n/a	37.09389591217041	37.1248939037323	38.09441781044006	n/a	26M_FE_O.jpg	26M_FE_O.jpg	27M_FE_O.BMP
38.2092490196228	1.8681728839874268	face	0.798835039139	1.0	0.8	n/a	n/a	40.07742190361023	40.10829186439514	41.07774090766907	n/a	MFX_16.jpg	MFZ_50.jpg	MFZ_50.jpg
41.208473920822144	1.868462085723877	face	0.732202768326	1.0	0.8	n/a	n/a	43.07693600654602	43.10816788673401	44.07780885696411	n/a	09F_AN_O.jpg	09F_AN_O.jpg	10F_AN_O.jpg
44.20881485939026	1.8681409358978271	face	0.798817157745	1.0	0.8	n/a	n/a	46.076955795288086	46.108192920684814	47.07783389091492	n/a	38M_AN_O.BMP	39M_AN_O.jpg	39M_AN_O.jpg
47.191709995269775	1.901921033859253	face	0.932236194611	1.0	0.8	n/a	n/a	49.09363102912903	49.12486290931702	50.094480991363525	n/a	FFZ_102.jpg	FFX_130.jpg	FFX_130.jpg
53.14186382293701	1.935777187347405	shape	0.666872024536	0.0	0.8	50.13999080657959	53.09386587142944	55.07764101028442	55.10824799537659	56.077873945236206	n/a	oval-horizontal.bmp	oval-vertical.bmp	oval-vertical.bmp
56.158530950546265	1.9356770515441823	shape	0.899406909943	1.0	0.8	n/a	n/a	58.09420800209045	58.12494897842407	59.094573974609375	n/a	circle.bmp	oval-vertical.bmp	oval-vertical.bmp
59.17522501945496	1.9023900032043384	shape	0.899573087692	1.0	0.8	n/a	n/a	61.0776150226593	61.10826992988586	62.07807397842407	n/a	oval-horizontal.bmp	oval-horizontal.bmp	oval-vertical.bmp
62.175270795822144	1.902339220046997	shape	0.831995010376	1.0	0.8	n/a	n/a	64.07761001586914	64.10829496383667	65.07794094085693	n/a	oval-horizontal.bmp	oval-horizontal.bmp	circle.bmp
65.15859389305115	1.935621976852417	shape	0.966424942017	1.0	0.8	n/a	n/a	67.09421586990356	67.12500190734863	68.09464287757874	n/a	circle.bmp	circle.bmp	oval-vertical.bmp
68.17530083656311	1.902332067489624	shape	0.798974990845	1.0	0.8	n/a	n/a	70.07763290405273	70.10834002494812	71.07797980308533	n/a	oval-horizontal.bmp	circle.bmp	circle.bmp
74.19290399551392	1.9010279178619385	face	1.43308186531	1.0	0.8	71.12455701828003	74.09402394294739	76.09393191337585	76.12505793571472	77.0947048664093	n/a	03F_FE_O.jpg	05F_FE_O.jpg	05F_FE_O.jpg
77.20923590660095	1.8680260181427	face	1.36560297012	1.0	0.8	n/a	n/a	79.07726192474365	79.10842800140381	80.0780827999115	n/a	FAZ_32.jpg	FAZ_32.jpg	FAX_45.jpg
80.1923668384552	1.901663064956665	face	0.965725898743	1.0	0.8	n/a	n/a	82.09402990341187	82.12510681152344	83.09475088119507	n/a	MAZ_128.jpg	MAZ_101.jpg	MAZ_101.jpg
83.22564482688904	1.868265151977539	face	1.33252191544	1.0	0.8	n/a	n/a	85.09390997886658	85.12513089179993	86.09474992752075	n/a	11F_AN_O.jpg	11F_AN_O.jpg	12F_AN_O.jpg
86.22546696662903	1.8684589862823489	face	0.7989590168	1.0	0.8	n/a	n/a	88.09392595291138	88.12514090538025	89.09479999542236	n/a	26M_FE_O.jpg	33M_FE_O.jpg	33M_FE_O.jpg
89.20927286148071	1.8680200576782229	face	0.76578783989	1.0	0.8	n/a	n/a	91.07729291915894	91.10851287841795	92.07813501358032	n/a	MFZ_132.jpg	MFZ_132.jpg	MFZ_120.jpg
95.1421890258789	1.9358189105987549	shape	0.900166034698	1.0	0.8	92.12530994415285	95.09418082237244	97.07800793647766	97.1085398197174	98.0781888961792	n/a	circle.bmp	oval-vertical.bmp	oval-vertical.bmp
98.15872192382812	1.9358439445495603	shape	0.766157150269	1.0	0.8	n/a	n/a	100.09456586837769	100.1252269744873	101.09485983848572	n/a	oval-horizontal.bmp	oval-horizontal.bmp	circle.bmp
101.17558884620668	1.90238404273984	shape	0.932327985764	1.0	0.8	n/a	n/a	103.07797288894652	103.10860991477966	104.0782299041748	n/a	oval-horizontal.bmp	oval-vertical.bmp	oval-vertical.bmp
104.15875601768494	1.9358148574829104	shape	0.699440956116	1.0	0.8	n/a	n/a	106.09457087516785	106.12528491020204	107.06169486045836	n/a	oval-horizontal.bmp	circle.bmp	circle.bmp
107.15900993347168	1.935641050338745	shape	1.06622600555	1.0	0.8	n/a	n/a	109.09465098381042	109.125305891037	110.06161785125732	n/a	oval-horizontal.bmp	oval-horizontal.bmp	oval-vertical.bmp
110.14214301109314	1.9357559680938576	shape	0.833049058914	1.0	0.8	n/a	n/a	112.077898979187	112.10864400863647	113.07832193374634	n/a	circle.bmp	circle.bmp	oval-vertical.bmp
116.1588499546051	1.935384988784776	face	0.799556016922	1.0	0.8	113.12633299827576	116.09431195259094	118.09423494338988	118.12536597251892	119.06175088882446	n/a	FAZ_23.jpg	FAZ_23.jpg	FAX_43.jpg
119.1925539970398	1.9016909599304057	face	0.798997163773	1.0	0.8	n/a	n/a	121.0942449569702	121.12540888786316	122.06171202659608	n/a	26M_FE_O.jpg	26M_FE_O.jpg	27M_FE_O.BMP
122.17562699317932	1.901937961578355	face	0.698391914368	1.0	0.8	n/a	n/a	124.07756495475768	124.1087589263916	125.07839393615724	n/a	MFZ_50.jpg	MFZ_50.jpg	MFX_16.jpg
125.20985579490662	1.867903232574463	face	1.06550598145	1.0	0.8	n/a	n/a	127.07775902748108	127.10879588127136	128.07837796211243	n/a	10F_AN_O.jpg	09F_AN_O.jpg	09F_AN_O.jpg
128.20908880233765	1.86851215362546	face	0.832363843918	1.0	0.8	n/a	n/a	130.0776009559631	130.10877680778503	131.07845282554626	n/a	38M_AN_O.BMP	39M_AN_O.jpg	39M_AN_O.jpg
131.19265294075012	1.9017469882965088	face	0.965688943863	1.0	0.8	n/a	n/a	133.09439992904663	133.1254849433899	134.06176781654358	n/a	FFZ_102.jpg	FFX_130.jpg	FFX_130.jpg
137.14233088493347	1.936492919921875	shape	0.766992092133	1.0	0.8	134.11110496520996	137.0779688358307	139.07882380485535	139.10892391204834	140.07849192619324	n/a	oval-horizontal.bmp	oval-horizontal.bmp	oval-vertical.bmp
140.1590278148651	1.9358460903167725	shape	0.699491977692	1.0	0.8	n/a	n/a	142.09487390518188	142.12554097175598	143.06185793876648	n/a	oval-horizontal.bmp	oval-vertical.bmp	oval-vertical.bmp
143.14236092567444	1.935810089111328	shape	0.732914924622	1.0	0.8	n/a	n/a	145.07817101478577	145.10891389846802	146.07850885391235	n/a	circle.bmp	circle.bmp	oval-vertical.bmp
146.15903687477112	1.935810089111328	shape	0.799659013748	1.0	0.8	n/a	n/a	148.09484696388245	148.1255829334259	149.06210589408877	n/a	circle.bmp	oval-vertical.bmp	oval-vertical.bmp
149.15908885002136	1.936119079589844	shape	0.632585048676	1.0	0.8	n/a	n/a	151.0952079296112	151.12565183639526	152.06187081336975	n/a	oval-horizontal.bmp	circle.bmp	circle.bmp
152.15932893753052	1.935636043548584	shape	0.799516916275	1.0	0.8	n/a	n/a	154.0949649810791	154.12563395500183	155.06193780899048	n/a	oval-horizontal.bmp	oval-horizontal.bmp	circle.bmp
158.17609190940857	1.901825904846192	face	1.16536712646	1.0	0.8	155.11204981803894	158.0779869556427	160.07791781425476	160.10899782180786	161.078861951828	n/a	20M_FE_O.jpg	21M_FE_O.jpg	21M_FE_O.jpg
161.2258279323578	1.86893892288208	face	0.966089010239	1.0	0.8	n/a	n/a	163.09476685523987	163.12571382522583	164.0620129108429	n/a	01F_AN_O.jpg	07F_AN_O.jpg	07F_AN_O.jpg
164.17602586746216	1.9018080234527588	face	0.698458194733	1.0	0.8	n/a	n/a	166.07783389091492	166.10905981063843	167.07868194580078	n/a	FFX_139.jpg	FFZ_102.jpg	FFZ_102.jpg
167.20972681045532	1.8680779933929443	face	1.13239097595	1.0	0.8	n/a	n/a	169.07780480384827	169.10931181907654	170.07871294021606	n/a	23M_AN_O.jpg	23M_AN_O.jpg	22M_AN_O.jpg
170.19306182861328	1.901503086090088	face	0.799086093903	1.0	0.8	n/a	n/a	172.09456491470337	172.1257679462433	173.06204795837402	n/a	MAZ_146.jpg	MAZ_146.jpg	MAX_233.jpg
173.19299602508545	1.9015929698944087	face	1.26547598839	1.0	0.8	n/a	n/a	175.09458899497986	175.1259729862213	176.0620858669281	n/a	15F_FE_O.jpg	15F_FE_O.jpg	16F_FE_O.jpg
179.12639784812927	1.936015129089356	shape	0.866225004196	1.0	0.8	176.11318683624268	179.0781478881836	181.06241297721863	181.09252786636355	182.06214594841003	n/a	oval-horizontal.bmp	oval-vertical.bmp	oval-vertical.bmp
182.1595950126648	1.902230978012085	shape	0.732727050781	1.0	0.8	n/a	n/a	184.06182599067688	184.09251379966736	185.06216597557068	n/a	circle.bmp	oval-vertical.bmp	oval-vertical.bmp
185.15960001945496	1.9026849269866943	shape	0.699568033218	1.0	0.8	n/a	n/a	187.06228494644165	187.09254789352417	188.06215286254883	n/a	oval-horizontal.bmp	oval-horizontal.bmp	oval-vertical.bmp
188.15958499908447	1.9026219844818115	shape	0.666079998016	1.0	0.8	n/a	n/a	190.06220698356628	190.092584848404	191.06223487854004	n/a	oval-horizontal.bmp	oval-horizontal.bmp	circle.bmp
191.15957379341123	1.9022390842438028	shape	0.766273021698	1.0	0.8	n/a	n/a	193.06181287765503	193.092584848404	194.06223392486567	n/a	circle.bmp	circle.bmp	oval-vertical.bmp
194.1596298217773	1.9022831916809368	shape	0.766412973404	1.0	0.8	n/a	n/a	196.06191301345825	196.0925920009613	197.062285900116	n/a	oval-horizontal.bmp	circle.bmp	circle.bmp
200.1598379611969	1.901811838149968	face	0.76660990715	1.0	0.8	197.11755990982056	200.07826781272888	202.06164979934687	202.0926418304444	203.0622959136963	n/a	FFX_54.jpg	FFX_54.jpg	FAX_51.jpg
203.19301891326904	1.9018011093139648	face	0.73238992691	1.0	0.8	n/a	n/a	205.094820022583	205.12599992752075	206.062294960022	n/a	40M_FE_O.BMP	41M_FE_O.jpg	41M_FE_O.jpg
206.19304490089417	1.901724100112915	face	0.76592206955	1.0	0.8	n/a	n/a	208.09476900100708	208.1260249614716	209.0625078678131	n/a	29M_AN_O.jpg	29M_AN_O.jpg	28M_AN_O.jpg
209.1764090061188	1.901777982711764	face	0.731401920319	1.0	0.8	n/a	n/a	211.07818698883057	211.10935497283936	212.07905101776123	n/a	FFZ_18.jpg	FFZ_29.jpg	FFZ_29.jpg
212.2097108364105	1.8684411048889444	face	1.06565213203	1.0	0.8	n/a	n/a	214.07815194129944	214.10940098762512	215.0790150165558	n/a	19F_AN_O.jpg	19F_AN_O.jpg	09F_AN_O.jpg
215.1931118965149	1.901766061782837	face	0.898952960968	1.0	0.8	n/a	n/a	217.09487795829773	217.12607598304749	218.0623939037323	n/a	MFZ_132.jpg	MFZ_7.jpg	MFZ_7.jpg
221.1262538433075	1.9359080791473389	shape	0.733708143234	1.0	0.8	218.1161158084869	221.0784180164337	223.06216192245483	223.0927948951721	224.06242895126343	n/a	circle.bmp	oval-vertical.bmp	oval-vertical.bmp
224.15980291366577	1.9026839733123493	shape	0.666194915771	1.0	0.8	n/a	n/a	226.0624868869781	226.0928218364716	227.0625958442688	n/a	oval-horizontal.bmp	oval-horizontal.bmp	circle.bmp
227.1596338748932	1.9026100635528564	shape	0.699695110321	1.0	0.8	n/a	n/a	229.06224393844604	229.09302186965945	230.062597990036	n/a	oval-horizontal.bmp	oval-vertical.bmp	oval-vertical.bmp
230.1598439216613	1.9026210308075235	shape	0.699182987213	1.0	0.8	n/a	n/a	232.06246495246887	232.0928699970245	233.06262183189392	n/a	oval-horizontal.bmp	circle.bmp	circle.bmp
233.15968298912048	1.90252685546875	shape	0.699517965317	1.0	0.8	n/a	n/a	235.06220984458923	235.09286379814148	236.0625560283661	n/a	oval-horizontal.bmp	oval-horizontal.bmp	oval-vertical.bmp
236.159854888916	1.90260601043704	shape	0.633041143417	1.0	0.8	n/a	n/a	238.06246089935303	238.0929148197174	239.0626878738404	n/a	circle.bmp	circle.bmp	oval-vertical.bmp
242.17677879333496	1.902008056640625	face	1.03243494034	1.0	0.8	239.1240079402924	242.0785658359528	244.0787868499756	244.10962796211243	245.07923293113708	n/a	20M_FE_O.jpg	21M_FE_O.jpg	21M_FE_O.jpg
245.2265520095825	1.8685178756714151	face	0.79901099205	1.0	0.8	n/a	n/a	247.0950698852539	247.12629079818728	248.0626208782196	n/a	07F_AN_O.jpg	07F_AN_O.jpg	01F_AN_O.jpg
248.19368195533752	1.868255853652954	face	0.765596151352	1.0	0.8	n/a	n/a	250.06193780899048	250.092985868454	251.06283283233645	n/a	FFZ_102.jpg	FFZ_102.jpg	FFX_139.jpg
251.21031880378723	1.868105173110962	face	0.932217121124	1.0	0.8	n/a	n/a	253.0784239768982	253.10988783836365	254.07936596870425	n/a	22M_AN_O.jpg	23M_AN_O.jpg	23M_AN_O.jpg
254.1936550140381	1.8685150146484373	face	0.699285030365	1.0	0.8	n/a	n/a	256.0621700286865	256.09321188926697	257.0628139972687	n/a	MAX_233.jpg	MAZ_146.jpg	MAZ_146.jpg
257.21023201942444	1.868236780166626	face	1.13219594955	1.0	0.8	n/a	n/a	259.07846879959106	259.10969495773315	260.0794129371643	n/a	15F_FE_O.jpg	15F_FE_O.jpg	16F_FE_O.jpg
263.1101779937744	1.935727834701538	shape	0.66686296463	1.0	0.8	260.1377248764038	263.0620138645172	265.04590582847595	265.07641100883484	266.0795478820801	n/a	oval-horizontal.bmp	oval-horizontal.bmp	oval-vertical.bmp
266.1765818595886	1.9029581546783447	shape	0.99919295311	1.0	0.8	n/a	n/a	268.07954001426697	268.10998582839966	269.07966589927673	n/a	oval-horizontal.bmp	oval-vertical.bmp	oval-vertical.bmp
269.17662382125854	1.9024109840393064	shape	0.698817968369	1.0	0.8	n/a	n/a	271.07903480529785	271.1097729206085	272.0796959400177	n/a	circle.bmp	circle.bmp	oval-vertical.bmp
272.1766009330749	1.90292406082159	shape	0.931921958923	1.0	0.8	n/a	n/a	274.0795249938965	274.1098668575287	275.07944083213806	n/a	circle.bmp	oval-vertical.bmp	oval-vertical.bmp
275.17662382125854	1.902475118637085	shape	0.898766994476	1.0	0.8	n/a	n/a	277.07909893989563	277.10983300209045	278.0796239376068	n/a	oval-horizontal.bmp	circle.bmp	circle.bmp
278.17667388916016	1.9028980731964111	shape	0.732100963593	1.0	0.8	n/a	n/a	280.07957196235657	280.1099178791046	281.079461812973	n/a	oval-horizontal.bmp	oval-horizontal.bmp	circle.bmp
284.1267149448395	1.935410976409912	face	0.733283042908	1.0	0.8	281.13567996025085	284.0621898174286	286.0621259212494	286.0934309959412	287.0628769397736	n/a	FFZ_18.jpg	FAZ_129.jpg	FAZ_129.jpg
287.2102928161621	1.868391990661621	face	1.16596984863	1.0	0.8	n/a	n/a	289.07868480682373	289.10992789268494	290.0795547962189	n/a	20M_FE_O.jpg	24M_FE_O.jpg	24M_FE_O.jpg
290.193904876709	1.868217945098877	face	0.698953151703	1.0	0.8	n/a	n/a	292.06212282180786	292.09345293045044	293.06305384635925	n/a	FAZ_23.jpg	FAX_25.jpg	FAX_25.jpg
293.2105088233948	1.8682291507720947	face	0.765626907349	1.0	0.8	n/a	n/a	295.07873797416687	295.1099410057068	296.0795907974243	n/a	33M_FE_O.jpg	33M_FE_O.jpg	35M_FE_O.jpg
296.22695994377136	1.835690975189209	face	0.865576028824	1.0	0.8	n/a	n/a	298.06265091896057	298.0933759212494	299.06300497055054	n/a	01F_AN_O.jpg	01F_AN_O.jpg	02F_AN_O.jpg
299.17680287361145	1.901993989944458	face	0.699063062668	1.0	0.8	n/a	n/a	301.0787968635559	301.1101930141449	302.07963585853577	n/a	MFZ_132.jpg	MFZ_132.jpg	MFZ_120.jpg
305.11017179489136	1.93599820137024	shape	0.96723484993	1.0	0.8	302.1369378566742	305.062285900116	307.0461699962616	307.07669401168823	308.07964396476746	n/a	oval-horizontal.bmp	oval-vertical.bmp	oval-vertical.bmp
308.17697286605835	1.902367115020752	shape	0.698585033417	1.0	0.8	n/a	n/a	310.0793399810791	310.11007499694824	311.0796949863434	n/a	circle.bmp	oval-vertical.bmp	oval-vertical.bmp
311.1769149303436	1.9024829864501955	shape	0.932271003723	1.0	0.8	n/a	n/a	313.0793979167938	313.110093832016	314.0797429084778	n/a	oval-horizontal.bmp	oval-horizontal.bmp	oval-vertical.bmp
314.1770348548889	1.902416944503784	shape	0.699156999588	1.0	0.8	n/a	n/a	316.0794517993927	316.11008191108704	317.0797348022461	n/a	oval-horizontal.bmp	oval-horizontal.bmp	circle.bmp
317.1769309043884	1.9024040699005127	shape	0.865219831467	1.0	0.8	n/a	n/a	319.07933497428894	319.11010789871216	320.0797779560089	n/a	circle.bmp	circle.bmp	oval-vertical.bmp
320.1770398616791	1.9023759365081787	shape	0.632032871246	1.0	0.8	n/a	n/a	322.07941579818726	322.11014890670776	323.0797770023346	n/a	oval-horizontal.bmp	circle.bmp	circle.bmp
326.16065883636475	1.9017210006713867	face	1.06641197205	1.0	0.8	323.1380269527436	326.0624988079071	328.06237983703613	328.0935318470001	329.06315779685974	n/a	17F_FE_O.jpg	18F_FE_O.jpg	18F_FE_O.jpg
329.2106049060821	1.868397951126156	face	0.698883056641	1.0	0.8	n/a	n/a	331.07900285720825	331.11018681526184	332.07986092567444	n/a	42M_AN_O.jpg	43M_AN_O.jpg	43M_AN_O.jpg
332.2271590232849	1.8351759910583496	face	0.798758983612	1.0	0.8	n/a	n/a	334.06233501434326	334.09355902671814	335.0632078647613	n/a	31M_FE_O.jpg	31M_FE_O.jpg	32M_FE_O.jpg
335.17723393440247	1.9018340110778809	face	0.831566810608	1.0	0.8	n/a	n/a	337.07906794548035	337.1102509498596	338.0798988342285	n/a	FAZ_212.jpg	FFZ_236.jpg	FFZ_236.jpg
338.2273318767548	1.8350479602813152	face	0.698933839798	1.0	0.8	n/a	n/a	340.06237983703613	340.0938129425049	341.0632789134979	n/a	06F_FE_O.jpg	06F_FE_O.jpg	08F_FE_O.jpg
341.17709493637085	1.901965856552124	face	0.631416082382	1.0	0.8	n/a	n/a	343.079060792923	343.1102969646454	344.07994294166565	n/a	MAZ_128.jpg	MAZ_128.jpg	MAX_39.jpg
347.1104679107666	1.9361369609832764	shape	0.76692199707	1.0	0.8	344.1394488811493	347.0626459121704	349.0466048717499	349.0769729614258	350.0799508094788	n/a	circle.bmp	oval-vertical.bmp	oval-vertical.bmp
350.1772689819336	1.9023668766021729	shape	0.665714979172	1.0	0.8	n/a	n/a	352.07963585853577	352.11035895347595	353.0800518989563	n/a	oval-horizontal.bmp	oval-horizontal.bmp	circle.bmp
353.17715191841125	1.902592897415161	shape	0.765321016312	1.0	0.8	n/a	n/a	355.0797448158264	355.11036491394043	356.0799648761749	n/a	oval-horizontal.bmp	oval-vertical.bmp	oval-vertical.bmp
356.1772918701172	1.90251898765564	shape	0.565304040909	1.0	0.8	n/a	n/a	358.0798108577728	358.1103730201721	359.0800838470459	n/a	oval-horizontal.bmp	circle.bmp	circle.bmp
359.17733001708984	1.902454853057861	shape	0.666346073151	1.0	0.8	n/a	n/a	361.0797848701477	361.1104118824005	362.08020401000977	n/a	oval-horizontal.bmp	oval-horizontal.bmp	oval-vertical.bmp
362.1942489147186	1.868738889694157	shape	0.666048049927	1.0	0.8	n/a	n/a	364.0629878044128	364.0937638282776	365.0633869171143	n/a	circle.bmp	circle.bmp	oval-vertical.bmp
368.1607949733734	1.9020400047302808	face	0.699599981308	1.0	0.8	365.12375497817993	368.0796029567719	370.0628349781037	370.09381794929504	371.0634498596192	n/a	FFZ_18.jpg	FAZ_129.jpg	FAZ_129.jpg
371.21116495132446	1.8683009147644043	face	0.798933029175	1.0	0.8	n/a	n/a	373.07946586608887	373.1105318069458	374.0801148414612	n/a	20M_FE_O.jpg	24M_FE_O.jpg	24M_FE_O.jpg
374.1940178871155	1.8686959743500324	face	0.565612792969	1.0	0.8	n/a	n/a	376.0627138614655	376.09381198883057	377.0636358261109	n/a	FAZ_23.jpg	FAX_25.jpg	FAX_25.jpg
377.21090483665466	1.8688931465149488	face	0.732620000839	1.0	0.8	n/a	n/a	379.0797979831696	379.11074900627136	380.0801529884338	n/a	33M_FE_O.jpg	33M_FE_O.jpg	35M_FE_O.jpg
380.2274739742279	1.835324048995972	face	0.965967178345	1.0	0.8	n/a	n/a	382.0627980232239	382.09387493133545	383.06367897987366	n/a	01F_AN_O.jpg	01F_AN_O.jpg	02F_AN_O.jpg
383.1942608356476	1.8688039779663088	face	0.665696144104	1.0	0.8	n/a	n/a	385.0630648136139	385.09394097328186	386.0637068748474	394.4635879993439	MFZ_132.jpg	MFZ_132.jpg	MFZ_120.jpg
