onset	duration	trial_type	response_time	accuracy_binarized	tr_seconds	cueStartTime	cueEndTime	trialEndTime	fixStartTime	fixEndTime	runEndTime	stimLeft	stimTop	stimRight
11.13131308555603	1.9339449405670184	shape	1.06695199013	1.0	0.8	8.074088096618652	11.064939975738524	13.065258026123049	13.09760308265686	14.098099946975708	n/a	oval-horizontal.bmp	oval-horizontal.bmp	oval-vertical.bmp
14.214586973190308	1.8677210807800293	shape	0.833976984024	1.0	0.8	n/a	n/a	16.082308053970337	16.114432096481323	17.081523895263672	n/a	oval-horizontal.bmp	oval-vertical.bmp	oval-vertical.bmp
17.181140899658203	1.9011621475219729	shape	0.66740489006	1.0	0.8	n/a	n/a	19.082303047180176	19.114360094070435	20.08156895637512	n/a	circle.bmp	circle.bmp	oval-vertical.bmp
20.181160926818848	1.903303146362305	shape	0.767486095428	1.0	0.8	n/a	n/a	22.084464073181152	22.11485290527344	23.08455491065979	n/a	circle.bmp	oval-vertical.bmp	oval-vertical.bmp
23.18169593811035	1.902688026428219	shape	0.699909925461	1.0	0.8	n/a	n/a	25.08438396453857	25.1147780418396	26.08439588546753	n/a	oval-horizontal.bmp	circle.bmp	circle.bmp
26.18170690536499	1.9024641513824496	shape	0.833060026169	1.0	0.8	n/a	n/a	28.08417105674744	28.114968061447144	29.084560871124268	n/a	oval-horizontal.bmp	oval-horizontal.bmp	circle.bmp
32.18179392814636	1.901975154876709	face	0.866733074188	1.0	0.8	29.14486789703369	32.10057306289673	34.08376908302307	34.11479306221008	35.084606885910034	n/a	FAZ_23.jpg	FAZ_23.jpg	FAX_43.jpg
35.24844193458557	1.835529088973999	face	0.736086130142	1.0	0.8	n/a	n/a	37.08397102355957	37.11493992805481	38.084665060043335	n/a	26M_FE_O.jpg	26M_FE_O.jpg	27M_FE_O.BMP
38.2152590751648	1.868790864944451	face	0.699018001556	1.0	0.8	n/a	n/a	40.08404994010925	40.11488103866577	41.08463907241821	n/a	MFX_16.jpg	MFZ_50.jpg	MFZ_50.jpg
41.24868297576904	1.8353469371795648	face	0.632508039474	1.0	0.8	n/a	n/a	43.08402991294861	43.11497402191162	44.084686040878296	n/a	09F_AN_O.jpg	09F_AN_O.jpg	10F_AN_O.jpg
44.24846005439758	1.8356008529663088	face	0.599153995514	1.0	0.8	n/a	n/a	46.08406090736389	46.114935874938965	47.08468699455261	n/a	38M_AN_O.BMP	39M_AN_O.jpg	39M_AN_O.jpg
47.215137004852295	1.868889093399048	face	0.732377052307	1.0	0.8	n/a	n/a	49.08402609825134	49.11502003669739	50.08472895622253	n/a	FFZ_102.jpg	FFX_130.jpg	FFX_130.jpg
53.14840507507324	1.9364299774169995	shape	0.733675956726	1.0	0.8	50.14477896690369	53.1005449295044	55.08483505249024	55.114978075027466	56.08472299575806	n/a	oval-horizontal.bmp	oval-vertical.bmp	oval-vertical.bmp
56.18184995651245	1.9027421474456787	shape	0.803157091141	1.0	0.8	n/a	n/a	58.08459210395813	58.115017890930176	59.08477687835693	n/a	circle.bmp	oval-vertical.bmp	oval-vertical.bmp
59.18192601203919	1.9027769565582204	shape	0.733162879944	1.0	0.8	n/a	n/a	61.08470296859741	61.11500287055969	62.0847909450531	n/a	oval-horizontal.bmp	oval-horizontal.bmp	oval-vertical.bmp
62.181889057159424	1.9027979373931885	shape	0.733068943024	1.0	0.8	n/a	n/a	64.08468699455261	64.11505007743835	65.08481192588806	n/a	oval-horizontal.bmp	oval-horizontal.bmp	circle.bmp
65.1818540096283	1.9027550220489504	shape	0.666411876678	1.0	0.8	n/a	n/a	67.08460903167725	67.11507296562195	68.08481502532959	n/a	circle.bmp	circle.bmp	oval-vertical.bmp
68.18193793296814	1.902750015258789	shape	0.803003072739	1.0	0.8	n/a	n/a	70.08468794822693	70.11509799957275	71.08483791351318	n/a	oval-horizontal.bmp	circle.bmp	circle.bmp
74.21539092063904	1.869078159332276	face	0.900031805038	0.0	0.8	71.14693188667297	74.10099196434021	76.08446907997131	76.11512899398804	77.08487606048584	n/a	03F_FE_O.jpg	05F_FE_O.jpg	05F_FE_O.jpg
77.21526098251343	1.8690121173858645	face	0.732540845871	1.0	0.8	n/a	n/a	79.08427309989929	79.11521196365356	80.0848879814148	n/a	FAZ_32.jpg	FAZ_32.jpg	FAX_45.jpg
80.21523904800415	1.86906099319458	face	0.932644128799	1.0	0.8	n/a	n/a	82.08430004119873	82.11512494087219	83.08475399017334	n/a	MAZ_128.jpg	MAZ_101.jpg	MAZ_101.jpg
83.24880290031433	1.8351490497589111	face	1.23282694817	1.0	0.8	n/a	n/a	85.08395195007324	85.11535406112671	86.0849380493164	n/a	11F_AN_O.jpg	11F_AN_O.jpg	12F_AN_O.jpg
86.24867486953735	1.8356940746307373	face	0.832585096359	1.0	0.8	n/a	n/a	88.08436894416809	88.11528396606445	89.08495688438416	n/a	26M_FE_O.jpg	33M_FE_O.jpg	33M_FE_O.jpg
89.23203706741333	1.8689928054809428	face	1.06586194038	1.0	0.8	n/a	n/a	91.10102987289427	91.1320939064026	92.1016240119934	n/a	MFZ_132.jpg	MFZ_132.jpg	MFZ_120.jpg
95.14879202842712	1.936293840408311	shape	0.666975021362	1.0	0.8	92.16000699996948	95.08430504798888	97.08508586883544	97.11531090736388	98.08505487442017	n/a	circle.bmp	oval-vertical.bmp	oval-vertical.bmp
98.1988160610199	1.9024758338928225	shape	0.666344881058	1.0	0.8	n/a	n/a	100.10129189491272	100.13214087486269	101.10159301757812	n/a	oval-horizontal.bmp	oval-horizontal.bmp	circle.bmp
101.19882607460022	1.9028728008270264	shape	0.699990987778	1.0	0.8	n/a	n/a	103.10169887542725	103.13208198547365	104.0685169696808	n/a	oval-horizontal.bmp	oval-vertical.bmp	oval-vertical.bmp
104.1822109222412	1.9027090072631976	shape	0.832972049713	1.0	0.8	n/a	n/a	106.0849199295044	106.11523294448853	107.0850830078125	n/a	oval-horizontal.bmp	circle.bmp	circle.bmp
107.198832988739	1.9025139808654783	shape	1.19995999336	1.0	0.8	n/a	n/a	109.10134696960448	109.13215899467468	110.0685830116272	n/a	oval-horizontal.bmp	oval-horizontal.bmp	oval-vertical.bmp
110.18218398094176	1.9025309085845947	shape	0.866595029831	1.0	0.8	n/a	n/a	112.08471488952635	112.11538100242616	113.08514404296876	n/a	circle.bmp	circle.bmp	oval-vertical.bmp
116.16556787490843	1.935402154922485	face	0.766577005386	1.0	0.8	113.15055894851685	116.08450889587402	118.10097002983092	118.13225889205933	119.068589925766	n/a	FAZ_23.jpg	FAZ_23.jpg	FAX_43.jpg
119.23242592811584	1.8686530590057373	face	0.665796995163	1.0	0.8	n/a	n/a	121.10107898712158	121.13228702545166	122.06848406791688	n/a	26M_FE_O.jpg	26M_FE_O.jpg	27M_FE_O.BMP
122.19898796081544	1.9021229743957373	face	0.732495069504	1.0	0.8	n/a	n/a	124.10111093521118	124.13226795196532	125.06851291656494	n/a	MFZ_50.jpg	MFZ_50.jpg	MFX_16.jpg
125.23244500160216	1.8686740398407269	face	0.899547100067	1.0	0.8	n/a	n/a	127.10111904144289	127.13232898712158	128.06865191459656	n/a	10F_AN_O.jpg	09F_AN_O.jpg	09F_AN_O.jpg
128.23235607147217	1.869182825088501	face	0.699244022369	1.0	0.8	n/a	n/a	130.10153889656067	130.1322250366211	131.06854009628296	n/a	38M_AN_O.BMP	39M_AN_O.jpg	39M_AN_O.jpg
131.19901204109192	1.902106046676636	face	0.932479858398	1.0	0.8	n/a	n/a	133.10111808776855	133.13239693641663	134.06872701644895	n/a	FFZ_102.jpg	FFX_130.jpg	FFX_130.jpg
137.16587209701538	1.935835838317871	shape	0.600217103958	0.0	0.8	134.1349880695343	137.10131192207336	139.10170793533325	139.13219094276428	140.06874990463257	n/a	oval-horizontal.bmp	oval-horizontal.bmp	oval-vertical.bmp
140.18244910240173	1.9028499126434328	shape	0.732882022858	1.0	0.8	n/a	n/a	142.08529901504517	142.1155710220337	143.0853989124298	n/a	oval-horizontal.bmp	oval-vertical.bmp	oval-vertical.bmp
143.1991069316864	1.9024291038513184	shape	0.732923030853	1.0	0.8	n/a	n/a	145.10153603553772	145.13244605064392	146.068608045578	n/a	circle.bmp	circle.bmp	oval-vertical.bmp
146.16581106185913	1.9358158111572263	shape	0.766350984573	1.0	0.8	n/a	n/a	148.10162687301636	148.13231492042542	149.068608045578	n/a	circle.bmp	oval-vertical.bmp	oval-vertical.bmp
149.1658010482788	1.9359638690948489	shape	0.733267068863	1.0	0.8	n/a	n/a	151.10176491737366	151.13254690170288	152.06868696212769	n/a	oval-horizontal.bmp	circle.bmp	circle.bmp
152.1825680732727	1.9024507999420168	shape	0.799778938293	1.0	0.8	n/a	n/a	154.08501887321472	154.11573600769043	155.0853669643402	n/a	oval-horizontal.bmp	oval-horizontal.bmp	circle.bmp
158.21602487564087	1.869047164916992	face	0.933444976807	1.0	0.8	155.14705300331116	158.1013798713684	160.08507204055786	160.11570405960083	161.08538007736206	n/a	20M_FE_O.jpg	21M_FE_O.jpg	21M_FE_O.jpg
161.24929308891296	1.835614919662476	face	0.932483911514	1.0	0.8	n/a	n/a	163.08490800857544	163.11578392982483	164.0855429172516	n/a	01F_AN_O.jpg	07F_AN_O.jpg	07F_AN_O.jpg
164.23259496688843	1.8687889575958248	face	0.766007900238	1.0	0.8	n/a	n/a	166.10138392448425	166.1325979232788	167.06875896453855	n/a	FFX_139.jpg	FFZ_102.jpg	FFZ_102.jpg
167.232764005661	1.868628025054932	face	0.799461126328	1.0	0.8	n/a	n/a	169.10139203071594	169.13244199752808	170.06895899772644	n/a	23M_AN_O.jpg	23M_AN_O.jpg	22M_AN_O.jpg
170.1994330883026	1.902015924453736	face	0.799372911453	1.0	0.8	n/a	n/a	172.10144901275635	172.132670879364	173.06894898414612	n/a	MAZ_146.jpg	MAZ_146.jpg	MAX_233.jpg
173.23283004760742	1.8686308860778809	face	1.19915795326	1.0	0.8	n/a	n/a	175.1014609336853	175.13268995285034	176.0689730644226	n/a	15F_FE_O.jpg	15F_FE_O.jpg	16F_FE_O.jpg
179.1498110294342	1.935620069503784	shape	0.733712911606	1.0	0.8	176.13588309288025	179.10154509544373	181.085431098938	181.1158668994904	182.0856590270996	n/a	oval-horizontal.bmp	oval-vertical.bmp	oval-vertical.bmp
182.1994149684906	1.869663953781128	shape	0.766447067261	1.0	0.8	n/a	n/a	184.06907892227173	184.099270105362	185.0690939426422	n/a	circle.bmp	oval-vertical.bmp	oval-vertical.bmp
185.18276810646057	1.9028167724609373	shape	1.00012397766	1.0	0.8	n/a	n/a	187.0855848789215	187.11600708961487	188.08556509017944	n/a	oval-horizontal.bmp	oval-horizontal.bmp	oval-vertical.bmp
188.1996829509735	1.8694911003112795	shape	0.699769973755	1.0	0.8	n/a	n/a	190.0691740512848	190.09933495521545	191.06900191307068	n/a	oval-horizontal.bmp	oval-horizontal.bmp	circle.bmp
191.18277287483207	1.902787208557157	shape	0.833031892776	1.0	0.8	n/a	n/a	193.08556008338928	193.1160249710083	194.0857319831848	n/a	circle.bmp	circle.bmp	oval-vertical.bmp
194.1995210647583	1.902439832687378	shape	0.6664249897	1.0	0.8	n/a	n/a	196.10196089744568	196.13287591934204	197.06898188591003	n/a	oval-horizontal.bmp	circle.bmp	circle.bmp
200.1995899677277	1.902477979660005	face	0.833374977112	1.0	0.8	197.13260293006897	200.1017520427704	202.1020679473877	202.1326789855957	203.06908893585205	n/a	FFX_54.jpg	FFX_54.jpg	FAX_51.jpg
203.23289608955383	1.8689680099487305	face	0.799216032028	1.0	0.8	n/a	n/a	205.10186409950256	205.1328160762787	206.0692389011383	n/a	40M_FE_O.BMP	41M_FE_O.jpg	41M_FE_O.jpg
206.24962997436523	1.8352339267730715	face	0.599365949631	1.0	0.8	n/a	n/a	208.0848639011383	208.11603307724	209.0858449935913	n/a	29M_AN_O.jpg	29M_AN_O.jpg	28M_AN_O.jpg
209.23325395584104	1.8686480522156048	face	0.76590180397	1.0	0.8	n/a	n/a	211.10190200805664	211.13285303115845	212.0691549777985	n/a	FFZ_18.jpg	FFZ_29.jpg	FFZ_29.jpg
212.2330470085144	1.868879079818754	face	0.632631063461	1.0	0.8	n/a	n/a	214.1019260883332	214.13280391693115	215.0691819190979	n/a	19F_AN_O.jpg	19F_AN_O.jpg	09F_AN_O.jpg
215.21643805503845	1.8689098358154297	face	0.768800973892	1.0	0.8	n/a	n/a	217.08534789085388	217.11621809005737	218.0858929157257	n/a	MFZ_132.jpg	MFZ_7.jpg	MFZ_7.jpg
221.1499400138855	1.9361200332641888	shape	0.800230026245	1.0	0.8	218.1563470363617	221.08536100387573	223.0860600471497	223.1160900592804	224.0859749317169	n/a	circle.bmp	oval-vertical.bmp	oval-vertical.bmp
224.19971108436584	1.86943483352664	shape	0.633008003235	1.0	0.8	n/a	n/a	226.06914591789248	226.0997009277344	227.0692749023437	n/a	oval-horizontal.bmp	oval-horizontal.bmp	circle.bmp
227.1830849647522	1.902831077575684	shape	0.599602937698	1.0	0.8	n/a	n/a	229.08591604232788	229.1162281036377	230.085834980011	n/a	oval-horizontal.bmp	oval-vertical.bmp	oval-vertical.bmp
230.19983291625977	1.869542121887207	shape	0.633088827133	1.0	0.8	n/a	n/a	232.06937503814697	232.0996680259705	233.0694010257721	n/a	oval-horizontal.bmp	circle.bmp	circle.bmp
233.1831719875336	1.9028060436248493	shape	0.633034944534	1.0	0.8	n/a	n/a	235.08597803115845	235.1163239479065	236.0860390663147	n/a	oval-horizontal.bmp	oval-horizontal.bmp	oval-vertical.bmp
236.1998360157013	1.869301080703736	shape	0.732944965363	1.0	0.8	n/a	n/a	238.06913709640503	238.0997080802917	239.0693800449372	n/a	circle.bmp	circle.bmp	oval-vertical.bmp
242.18336606025696	1.9024429321288776	face	1.183406114576	0.0	0.8	239.1398599147797	242.0687639713288	244.08580899238584	244.1163899898529	245.08612203598025	n/a	20M_FE_O.jpg	21M_FE_O.jpg	21M_FE_O.jpg
245.26649808883667	1.802485942840576	face	0.799129962921	1.0	0.8	n/a	n/a	247.06898403167725	247.0998570919037	248.06944704055783	n/a	07F_AN_O.jpg	07F_AN_O.jpg	01F_AN_O.jpg
248.21651101112369	1.8691599369048788	face	0.832813978195	1.0	0.8	n/a	n/a	250.08567094802856	250.116466999054	251.0861439704895	n/a	FFZ_102.jpg	FFZ_102.jpg	FFX_139.jpg
251.2666590213776	1.835505008697481	face	0.799144983292	1.0	0.8	n/a	n/a	253.10216403007507	253.1331250667572	254.06971096992493	n/a	22M_AN_O.jpg	23M_AN_O.jpg	23M_AN_O.jpg
254.2167830467224	1.8689229488372805	face	0.832682132721	1.0	0.8	n/a	n/a	256.0857059955597	256.11646795272827	257.08615493774414	n/a	MAX_233.jpg	MAZ_146.jpg	MAZ_146.jpg
257.26671409606934	1.8024539947509768	face	1.33284497261	1.0	0.8	n/a	n/a	259.0691680908203	259.0999410152436	260.0695309638977	n/a	15F_FE_O.jpg	15F_FE_O.jpg	16F_FE_O.jpg
263.13397097587585	1.9360311031341555	shape	0.667326927185	1.0	0.8	260.1413218975067	263.06891894340515	265.07000207901	265.09983587265015	266.0695650577545	n/a	oval-horizontal.bmp	oval-horizontal.bmp	oval-vertical.bmp
266.1834049224853	1.9027841091156008	shape	0.766353845596	1.0	0.8	n/a	n/a	268.0861890316009	268.11647510528564	269.08627009391785	n/a	oval-horizontal.bmp	oval-vertical.bmp	oval-vertical.bmp
269.20009088516235	1.869595050811768	shape	0.632939100266	1.0	0.8	n/a	n/a	271.0696859359741	271.0998730659485	272.0694749355316	n/a	circle.bmp	circle.bmp	oval-vertical.bmp
272.18340396881104	1.902557134628296	shape	0.69996213913	1.0	0.8	n/a	n/a	274.08596110343933	274.1165781021118	275.0863039493561	n/a	circle.bmp	oval-vertical.bmp	oval-vertical.bmp
275.2002708911896	1.868974208831787	shape	0.732939958572	1.0	0.8	n/a	n/a	277.06924510002136	277.100065946579	278.0695230960846	n/a	oval-horizontal.bmp	circle.bmp	circle.bmp
278.18344593048096	1.9025750160217283	shape	0.766335964203	1.0	0.8	n/a	n/a	280.0860209465027	280.11664390563965	281.0863308906555	n/a	oval-horizontal.bmp	oval-horizontal.bmp	circle.bmp
284.1667540073395	1.9028279781341555	face	0.666495084763	1.0	0.8	281.1612060070038	284.08557891845703	286.06958198547363	286.0999319553375	287.06968998909	n/a	FFZ_18.jpg	FAZ_129.jpg	FAZ_129.jpg
287.2502100467682	1.835258007049504	face	1.19915699959	1.0	0.8	n/a	n/a	289.0854680538177	289.1165699958801	290.08643794059753	n/a	20M_FE_O.jpg	24M_FE_O.jpg	24M_FE_O.jpg
290.2337589263916	1.835076093673706	face	0.699364900589	1.0	0.8	n/a	n/a	292.0688350200653	292.0999369621277	293.0695939064026	n/a	FAZ_23.jpg	FAX_25.jpg	FAX_25.jpg
293.2336959838867	1.835697889328003	face	0.932737112045	1.0	0.8	n/a	n/a	295.0693938732147	295.1000928878784	296.06975197792053	n/a	33M_FE_O.jpg	33M_FE_O.jpg	35M_FE_O.jpg
296.2501850128174	1.835424900054932	face	0.932852983475	1.0	0.8	n/a	n/a	298.0856099128723	298.11680603027344	299.0864849090576	n/a	01F_AN_O.jpg	01F_AN_O.jpg	02F_AN_O.jpg
299.2335729598999	1.83584213256836	face	1.16616010666	1.0	0.8	n/a	n/a	301.06941509246826	301.1001150608063	302.0698199272156	n/a	MFZ_132.jpg	MFZ_132.jpg	MFZ_120.jpg
305.13373589515686	1.936238050460816	shape	0.700330972672	1.0	0.8	302.1443769931793	305.0692858695984	307.0699739456177	307.1001238822937	308.06972098350525	n/a	oval-horizontal.bmp	oval-vertical.bmp	oval-vertical.bmp
308.1836359500885	1.9028780460357664	shape	0.599860906601	1.0	0.8	n/a	n/a	310.08651399612427	310.116779088974	311.0865650177002	n/a	circle.bmp	oval-vertical.bmp	oval-vertical.bmp
311.2003788948059	1.869176149368286	shape	0.800019979477	1.0	0.8	n/a	n/a	313.0695550441742	313.1001260280609	314.0699300765991	n/a	oval-horizontal.bmp	oval-horizontal.bmp	oval-vertical.bmp
314.18363308906555	1.90294885635376	shape	0.633344888687	1.0	0.8	n/a	n/a	316.0865819454193	316.1168529987335	317.08664107322693	n/a	oval-horizontal.bmp	oval-horizontal.bmp	circle.bmp
317.2002639770508	1.8692560195922847	shape	0.733061075211	1.0	0.8	n/a	n/a	319.06951999664307	319.10014390945435	320.0699958801269	n/a	circle.bmp	circle.bmp	oval-vertical.bmp
320.1837100982666	1.902512788772583	shape	0.933224201202	1.0	0.8	n/a	n/a	322.0862228870392	322.11675095558167	323.0866730213165	n/a	oval-horizontal.bmp	circle.bmp	circle.bmp
326.2005898952484	1.8689839839935305	face	0.933596849442	1.0	0.8	323.1653048992157	326.08579993247986	328.06957387924194	328.10028100013733	329.0700340270996	n/a	17F_FE_O.jpg	18F_FE_O.jpg	18F_FE_O.jpg
329.25050592422485	1.8357479572296145	face	0.832639932632	1.0	0.8	n/a	n/a	331.08625388145447	331.11696195602417	332.0867118835449	n/a	42M_AN_O.jpg	43M_AN_O.jpg	43M_AN_O.jpg
332.26710391044617	1.802347183227539	face	0.566002845764	1.0	0.8	n/a	n/a	334.0694510936737	334.1004500389099	335.0700480937958	n/a	31M_FE_O.jpg	31M_FE_O.jpg	32M_FE_O.jpg
335.2174561023712	1.868815898895264	face	0.79950094223	1.0	0.8	n/a	n/a	337.0862720012665	337.1170449256897	338.0867509841919	n/a	FAZ_212.jpg	FFZ_236.jpg	FFZ_236.jpg
338.26724004745483	1.8019089698791504	face	0.732944011688	1.0	0.8	n/a	n/a	340.069149017334	340.1004819869995	341.07008600234985	n/a	06F_FE_O.jpg	06F_FE_O.jpg	08F_FE_O.jpg
341.21721506118774	1.868764877319336	face	1.4992039203649998	0.0	0.8	n/a	n/a	343.0859799385071	343.11697602272034	344.0868630409241	n/a	MAZ_128.jpg	MAZ_128.jpg	MAX_39.jpg
347.134064912796	1.936156988143921	shape	0.633557081223	1.0	0.8	344.1660039424896	347.0694320201874	349.07022190093994	349.10037302970886	350.07012701034546	n/a	circle.bmp	oval-vertical.bmp	oval-vertical.bmp
350.18388509750366	1.902853965759277	shape	0.633259773254	1.0	0.8	n/a	n/a	352.08673906326294	352.11711502075195	353.0867738723755	n/a	oval-horizontal.bmp	oval-horizontal.bmp	circle.bmp
353.20066595077515	1.8691630363464355	shape	0.599858999252	1.0	0.8	n/a	n/a	355.0698289871216	355.1005198955536	356.0702259540558	n/a	oval-horizontal.bmp	oval-vertical.bmp	oval-vertical.bmp
356.1838459968567	1.9028050899505613	shape	0.633058071136	1.0	0.8	n/a	n/a	358.08665108680725	358.11713910102844	359.0868470668793	n/a	oval-horizontal.bmp	circle.bmp	circle.bmp
359.2006890773773	1.869438886642456	shape	0.633288145065	1.0	0.8	n/a	n/a	361.0701279640198	361.10054087638855	362.0702359676361	n/a	oval-horizontal.bmp	oval-horizontal.bmp	oval-vertical.bmp
362.18389105796814	1.9024388790130613	shape	0.599848031998	1.0	0.8	n/a	n/a	364.0863299369812	364.11723709106445	365.0867869853973	n/a	circle.bmp	circle.bmp	oval-vertical.bmp
368.1673359870911	1.902184009552002	face	0.566712141037	1.0	0.8	365.16096210479736	368.0860688686371	370.0695199966431	370.10054087638855	371.0702769756317	n/a	FFZ_18.jpg	FAZ_129.jpg	FAZ_129.jpg
371.2509019374848	1.8350920677185056	face	1.13269495964	1.0	0.8	n/a	n/a	373.0859940052033	373.1173069477081	374.08694410324097	n/a	20M_FE_O.jpg	24M_FE_O.jpg	24M_FE_O.jpg
374.2341110706329	1.835325002670345	face	0.899354934692	1.0	0.8	n/a	n/a	376.0694360733032	376.1007220745087	377.0703370571137	n/a	FAZ_23.jpg	FAX_25.jpg	FAX_25.jpg
377.2509610652924	1.835155010223332	face	1.265887618064	1.0	0.8	n/a	n/a	379.08611607551575	379.11736702919006	380.0870850086212	n/a	33M_FE_O.jpg	33M_FE_O.jpg	35M_FE_O.jpg
380.26744508743286	1.8025288581848145	face	0.632755041122	1.0	0.8	n/a	n/a	382.0699739456177	382.10059809684753	383.070249080658	n/a	01F_AN_O.jpg	01F_AN_O.jpg	02F_AN_O.jpg
383.2175250053406	1.8690810203552248	face	0.699160814285	1.0	0.8	n/a	n/a	385.0866060256958	385.1172559261322	386.0871229171753	394.486967086792	MFZ_132.jpg	MFZ_132.jpg	MFZ_120.jpg
