onset	duration	trial_type	response_time	accuracy_binarized	tr_seconds	cueStartTime	cueEndTime	trialEndTime	fixStartTime	fixEndTime	runEndTime	stimLeft	stimTop	stimRight
11.0925910473	1.9440560341000008	shape	0.749055862427	1.0	0.8	8.03174209595	11.0205991268	13.0366470814	13.0527830124	14.0353980064	n/a	oval-horizontal.bmp	oval-horizontal.bmp	oval-vertical.bmp
14.1779229641	1.8578810692	shape	0.996015071869	1.0	0.8	n/a	n/a	16.0358040333	16.0529069901	17.0349290371	n/a	oval-horizontal.bmp	oval-vertical.bmp	oval-vertical.bmp
17.1697449684	1.8646380901000013	shape	0.709968090057	1.0	0.8	n/a	n/a	19.0343830585	19.0513751507	20.0334889889	n/a	circle.bmp	circle.bmp	oval-vertical.bmp
20.163711071	1.8663640021999968	shape	0.65423989296	1.0	0.8	n/a	n/a	22.0300750732	22.0472371578	23.0312981606	n/a	circle.bmp	oval-vertical.bmp	oval-vertical.bmp
23.1657090187	1.8685181141000025	shape	0.72064614296	1.0	0.8	n/a	n/a	25.0342271328	25.050385952	26.0326890945	n/a	oval-horizontal.bmp	circle.bmp	circle.bmp
26.1672570705	1.8658120633000017	shape	0.704154014587	1.0	0.8	n/a	n/a	28.0330691338	28.049875021	29.0317120552	n/a	oval-horizontal.bmp	oval-horizontal.bmp	circle.bmp
32.1153790951	1.9149270056999936	face	0.853582859039	1.0	0.8	29.1261639595	32.0302760601	34.0303061008	34.0473530293	35.0303139687	n/a	FAZ_23.jpg	FAZ_23.jpg	FAX_43.jpg
35.1807980537	1.8490619660000007	face	0.969848871231	1.0	0.8	n/a	n/a	37.0298600197	37.0463500023	38.0286071301	n/a	26M_FE_O.jpg	26M_FE_O.jpg	27M_FE_O.BMP
38.1736309528	1.8551270961999933	face	0.926708936691	1.0	0.8	n/a	n/a	40.028758049	40.0455870628	41.0286860466	n/a	MFX_16.jpg	MFZ_50.jpg	MFZ_50.jpg
41.2071130276	1.8177950381999963	face	0.837151050568	1.0	0.8	n/a	n/a	43.0249080658	43.0407979488	44.0249540806	n/a	09F_AN_O.jpg	09F_AN_O.jpg	10F_AN_O.jpg
44.1921491623	1.8353209495000016	face	0.804383039474	1.0	0.8	n/a	n/a	46.0274701118	46.0441670418	47.0267679691	n/a	38M_AN_O.BMP	39M_AN_O.jpg	39M_AN_O.jpg
47.1781890392	1.8487191201	face	0.871682882309	1.0	0.8	n/a	n/a	49.0269081593	49.0436570644	50.0262839794	n/a	FFZ_102.jpg	FFX_130.jpg	FFX_130.jpg
53.0805430412	1.944618940399998	shape	0.762966156006	1.0	0.8	50.1242771149	53.0242180824	55.0251619816	55.0405571461	56.0240690708	n/a	oval-horizontal.bmp	oval-vertical.bmp	oval-vertical.bmp
56.1493639946	1.8911709785	shape	0.712146043777	1.0	0.8	n/a	n/a	58.0405349731	58.0563399792	59.0394799709	n/a	circle.bmp	oval-vertical.bmp	oval-vertical.bmp
59.1666870117	1.872621059400004	shape	1.09073996544	0.0	0.8	n/a	n/a	61.0393080711	61.0562109947	62.0389289856	n/a	oval-horizontal.bmp	oval-horizontal.bmp	oval-vertical.bmp
62.1687631607	1.866884946799992	shape	0.955244064331	1.0	0.8	n/a	n/a	64.0356481075	64.052106142	65.0360081196	n/a	oval-horizontal.bmp	oval-horizontal.bmp	circle.bmp
65.1697900295	1.8683741092999924	shape	0.936606884003	1.0	0.8	n/a	n/a	67.0381641388	67.0545020103	68.0371370316	n/a	circle.bmp	circle.bmp	oval-vertical.bmp
68.1711661816	1.8655948639	shape	0.784187078476	1.0	0.8	n/a	n/a	70.0367610455	70.0535781384	71.037140131	n/a	oval-horizontal.bmp	circle.bmp	circle.bmp
74.13667202	1.898900032	face	0.837003946304	1.0	0.8	71.1457741261	74.0353951454	76.035572052	76.0516340733	77.0346500874	n/a	03F_FE_O.jpg	05F_FE_O.jpg	05F_FE_O.jpg
77.1851069927	1.8493981361999945	face	1.31100296974	1.0	0.8	n/a	n/a	79.0345051289	79.0512909889	80.03343606	n/a	FAZ_32.jpg	FAZ_32.jpg	FAX_45.jpg
80.1846811771	1.8485288619999949	face	1.32582688332	1.0	0.8	n/a	n/a	82.0332100391	82.0494410992	83.0321090221	n/a	MAZ_128.jpg	MAZ_101.jpg	MAZ_101.jpg
83.2298181057	1.7990689277999934	face	1.07050895691	1.0	0.8	n/a	n/a	85.0288870335	85.0455131531	86.0294070244	n/a	11F_AN_O.jpg	11F_AN_O.jpg	12F_AN_O.jpg
86.214550972	1.8180851935999984	face	0.756373882294	1.0	0.8	n/a	n/a	88.0326361656	88.0486359596	89.0318031311	n/a	26M_FE_O.jpg	33M_FE_O.jpg	33M_FE_O.jpg
89.182500124	1.8482298850999967	face	0.869934797287	1.0	0.8	n/a	n/a	91.0307300091	91.0470721722	92.0306940079	n/a	MFZ_132.jpg	MFZ_132.jpg	MFZ_120.jpg
95.0802280903	1.9487469195999976	shape	0.755284070969	1.0	0.8	92.1265351772	95.0290939808	97.0289750099	97.0450329781	98.0282251835	n/a	circle.bmp	oval-vertical.bmp	oval-vertical.bmp
98.1630260944	1.8648638725999973	shape	0.628103971481	1.0	0.8	n/a	n/a	100.027889967	100.044080019	101.027697086	n/a	oval-horizontal.bmp	oval-horizontal.bmp	circle.bmp
101.162412167	1.8645489209999937	shape	0.642956972122	1.0	0.8	n/a	n/a	103.026961088	103.043437004	104.026538134	n/a	oval-horizontal.bmp	oval-vertical.bmp	oval-vertical.bmp
104.160937071	1.865622042999988	shape	0.58663392067	1.0	0.8	n/a	n/a	106.026559114	106.04018712	107.023585081	n/a	oval-horizontal.bmp	circle.bmp	circle.bmp
107.158529997	1.8671331399999929	shape	0.85737991333	0.0	0.8	n/a	n/a	109.025663137	109.042843103	110.025346994	n/a	oval-horizontal.bmp	oval-horizontal.bmp	oval-vertical.bmp
110.176679134	1.848363876999997	shape	0.836610794067	1.0	0.8	n/a	n/a	112.025043011	112.041128159	113.026431084	n/a	circle.bmp	circle.bmp	oval-vertical.bmp
116.090690136	1.9337899679999992	face	0.836838960648	1.0	0.8	113.127289057	116.023785114	118.024480104	118.039723158	119.040810108	n/a	FAZ_23.jpg	FAZ_23.jpg	FAX_43.jpg
119.208763123	1.8293788430000009	face	0.815215110779	1.0	0.8	n/a	n/a	121.038141966	121.055773973	122.037743092	n/a	26M_FE_O.jpg	26M_FE_O.jpg	27M_FE_O.BMP
122.188994169	1.8491008280000043	face	0.794458866119	1.0	0.8	n/a	n/a	124.038094997	124.05413413	125.036992073	n/a	MFZ_50.jpg	MFZ_50.jpg	MFX_16.jpg
125.221382141	1.8142039779999948	face	0.787029981613	1.0	0.8	n/a	n/a	127.035586119	127.051391125	128.034836054	n/a	10F_AN_O.jpg	09F_AN_O.jpg	09F_AN_O.jpg
128.219398975	1.8167262080000053	face	0.756505966187	1.0	0.8	n/a	n/a	130.036125183	130.052742958	131.036323071	n/a	38M_AN_O.BMP	39M_AN_O.jpg	39M_AN_O.jpg
131.20599103	1.8292670250000072	face	0.872755050659	1.0	0.8	n/a	n/a	133.035258055	133.051717043	134.035298109	n/a	FFZ_102.jpg	FFX_130.jpg	FFX_130.jpg
137.085978031	1.9481899740000013	shape	1.10369610786	1.0	0.8	134.143100023	137.033611059	139.034168005	139.049932003	140.033360004	n/a	oval-horizontal.bmp	oval-horizontal.bmp	oval-vertical.bmp
140.183541059	1.8493499760000127	shape	0.859419107437	1.0	0.8	n/a	n/a	142.032891035	142.0496521	143.032500029	n/a	oval-horizontal.bmp	oval-vertical.bmp	oval-vertical.bmp
143.203677177	1.8288428790000069	shape	0.719691038132	1.0	0.8	n/a	n/a	145.032520056	145.060494184	146.030982018	n/a	circle.bmp	circle.bmp	oval-vertical.bmp
146.182727098	1.846099854000016	shape	0.783652067184	1.0	0.8	n/a	n/a	148.028826952	148.045398951	149.028548956	n/a	circle.bmp	oval-vertical.bmp	oval-vertical.bmp
149.180372	1.850448131000008	shape	0.772329092026	1.0	0.8	n/a	n/a	151.030820131	151.046905041	152.03038311	n/a	oval-horizontal.bmp	circle.bmp	circle.bmp
152.197244167	1.8319928649999893	shape	0.769968986511	1.0	0.8	n/a	n/a	154.029237032	154.046316147	155.028337002	n/a	oval-horizontal.bmp	oval-horizontal.bmp	circle.bmp
158.145522118	1.8818080419999887	face	1.3202829361	1.0	0.8	155.14370203	158.028084993	160.02733016	160.043502092	161.026510954	n/a	20M_FE_O.jpg	21M_FE_O.jpg	21M_FE_O.jpg
161.219665051	1.8068900100000176	face	1.02932405472	1.0	0.8	n/a	n/a	163.026555061	163.042292118	164.025213957	n/a	01F_AN_O.jpg	07F_AN_O.jpg	07F_AN_O.jpg
164.187952042	1.8371369829999933	face	0.760184049606	1.0	0.8	n/a	n/a	166.025089025	166.042118073	167.024460077	n/a	FFX_139.jpg	FFZ_102.jpg	FFZ_102.jpg
167.226070166	1.8127188679999904	face	0.918148040771	1.0	0.8	n/a	n/a	169.038789034	169.056507111	170.024283171	n/a	23M_AN_O.jpg	23M_AN_O.jpg	22M_AN_O.jpg
170.18980813	1.834859848000008	face	0.988538980484	1.0	0.8	n/a	n/a	172.024667978	172.040647984	173.023529053	n/a	MAZ_146.jpg	MAZ_146.jpg	MAX_233.jpg
173.208867073	1.814830064999996	face	1.28066110611	0.0	0.8	n/a	n/a	175.023697138	175.039546967	176.023427963	n/a	15F_FE_O.jpg	15F_FE_O.jpg	16F_FE_O.jpg
179.088703156	1.9498088359999883	shape	0.850367069244	1.0	0.8	176.136665106	179.038309097	181.038511992	181.05428195	182.036869049	n/a	oval-horizontal.bmp	oval-vertical.bmp	oval-vertical.bmp
182.180171013	1.8572490210000008	shape	0.794939994812	1.0	0.8	n/a	n/a	184.037420034	184.052905083	185.036925077	n/a	circle.bmp	oval-vertical.bmp	oval-vertical.bmp
185.181880951	1.85491919499998	shape	0.708977937698	1.0	0.8	n/a	n/a	187.036800146	187.052963018	188.035261154	n/a	oval-horizontal.bmp	oval-horizontal.bmp	oval-vertical.bmp
188.166805029	1.865847111000022	shape	0.734120845795	1.0	0.8	n/a	n/a	190.03265214	190.049148083	191.035424948	n/a	oval-horizontal.bmp	oval-horizontal.bmp	circle.bmp
191.185369015	1.849792957000005	shape	0.821200847626	1.0	0.8	n/a	n/a	193.035161972	193.05142498	194.03433609	n/a	circle.bmp	circle.bmp	oval-vertical.bmp
194.185410023	1.848713158999999	shape	1.13784980774	1.0	0.8	n/a	n/a	196.034123182	196.051010132	197.033252954	n/a	oval-horizontal.bmp	circle.bmp	circle.bmp
200.099334955	1.932687044000005	face	0.852558851242	1.0	0.8	197.148385048	200.031502962	202.032021999	202.04826498	203.031275034	n/a	FFX_54.jpg	FFX_54.jpg	FAX_51.jpg
203.191137075	1.8400080209999885	face	0.87780880928	1.0	0.8	n/a	n/a	205.031145096	205.047533989	206.03025198	n/a	40M_FE_O.BMP	41M_FE_O.jpg	41M_FE_O.jpg
206.214426994	1.8158900739999808	face	0.775249004364	1.0	0.8	n/a	n/a	208.030317068	208.047261953	209.02612114	n/a	29M_AN_O.jpg	29M_AN_O.jpg	28M_AN_O.jpg
209.17793417	1.8497898580000085	face	0.70397901535	1.0	0.8	n/a	n/a	211.027724028	211.043817997	212.02920413	n/a	FFZ_18.jpg	FFZ_29.jpg	FFZ_29.jpg
212.228963137	1.7998399730000187	face	0.837357997894	1.0	0.8	n/a	n/a	214.02880311	214.045956135	215.028066158	n/a	19F_AN_O.jpg	19F_AN_O.jpg	09F_AN_O.jpg
215.178884029	1.84930205400002	face	0.818830013275	1.0	0.8	n/a	n/a	217.028186083	217.044203997	218.026903152	n/a	MFZ_132.jpg	MFZ_7.jpg	MFZ_7.jpg
221.076640129	1.948817015000003	shape	0.531471014023	1.0	0.8	218.13172698	221.026302099	223.025457144	223.04254818	224.024989128	n/a	circle.bmp	oval-vertical.bmp	oval-vertical.bmp
224.169083118	1.855545043999996	shape	0.794847011566	1.0	0.8	n/a	n/a	226.024628162	226.041352987	227.023972988	n/a	oval-horizontal.bmp	oval-horizontal.bmp	circle.bmp
227.169505119	1.8550038340000008	shape	0.575276136398	1.0	0.8	n/a	n/a	229.024508953	229.040663958	230.023519993	n/a	oval-horizontal.bmp	oval-vertical.bmp	oval-vertical.bmp
230.171056032	1.8673989769999928	shape	0.834946155548	1.0	0.8	n/a	n/a	232.038455009	232.05448699	233.040037155	n/a	oval-horizontal.bmp	circle.bmp	circle.bmp
233.189826012	1.8492910859999936	shape	1.22294187546	1.0	0.8	n/a	n/a	235.039117098	235.056450129	236.038853168	n/a	oval-horizontal.bmp	oval-horizontal.bmp	oval-vertical.bmp
236.189284086	1.8491330150000067	shape	0.784708023071	1.0	0.8	n/a	n/a	238.038417101	238.054541111	239.038452148	n/a	circle.bmp	circle.bmp	oval-vertical.bmp
242.127629042	1.9097521300000155	face	0.914027929306	1.0	0.8	239.183223963	242.036720037	244.037381172	244.052423954	245.035743952	n/a	20M_FE_O.jpg	21M_FE_O.jpg	21M_FE_O.jpg
245.229236126	1.806416035000012	face	0.695204019547	1.0	0.8	n/a	n/a	247.035652161	247.051504135	248.034901142	n/a	07F_AN_O.jpg	07F_AN_O.jpg	01F_AN_O.jpg
248.197252989	1.837589025	face	0.89151096344	1.0	0.8	n/a	n/a	250.034842014	250.050878048	251.030874968	n/a	FFZ_102.jpg	FFZ_102.jpg	FFX_139.jpg
251.23548913	1.7985069750000091	face	0.93669295311	1.0	0.8	n/a	n/a	253.033996105	253.050985098	254.033497095	n/a	22M_AN_O.jpg	23M_AN_O.jpg	23M_AN_O.jpg
254.216797113	1.816663981000005	face	0.770388126373	1.0	0.8	n/a	n/a	256.033461094	256.049973965	257.032487154	n/a	MAX_233.jpg	MAZ_146.jpg	MAZ_146.jpg
257.21686697	1.815591096999981	face	1.0355091095	1.0	0.8	n/a	n/a	259.032458067	259.049049139	260.031768084	n/a	15F_FE_O.jpg	15F_FE_O.jpg	16F_FE_O.jpg
263.082201958	1.947971105000022	shape	1.16958189011	1.0	0.8	260.129235029	263.030857086	265.030173063	265.047111988	266.029421091	n/a	oval-horizontal.bmp	oval-horizontal.bmp	oval-vertical.bmp
266.180159092	1.8489818570000125	shape	0.928741931915	1.0	0.8	n/a	n/a	268.029140949	268.045129061	269.02859807	n/a	oval-horizontal.bmp	oval-vertical.bmp	oval-vertical.bmp
269.174019098	1.854513884000028	shape	0.742389917374	1.0	0.8	n/a	n/a	271.028532982	271.045211077	272.025573015	n/a	circle.bmp	circle.bmp	oval-vertical.bmp
272.176090956	1.85234522799999	shape	0.65261888504	1.0	0.8	n/a	n/a	274.028436184	274.044667006	275.027878046	n/a	circle.bmp	oval-vertical.bmp	oval-vertical.bmp
275.177919149	1.8491418369999904	shape	0.667819023132	1.0	0.8	n/a	n/a	277.027060986	277.043257952	278.025905132	n/a	oval-horizontal.bmp	circle.bmp	circle.bmp
278.178354979	1.848071097999992	shape	0.818166017532	1.0	0.8	n/a	n/a	280.026426077	280.042243958	281.025969982	n/a	oval-horizontal.bmp	oval-horizontal.bmp	circle.bmp
284.092092991	1.9320821759999944	face	0.753207921982	1.0	0.8	281.143743038	284.024631977	286.024175167	286.039978027	287.023689032	n/a	FFZ_18.jpg	FAZ_129.jpg	FAZ_129.jpg
287.21748805	1.806315899000026	face	1.21086716652	1.0	0.8	n/a	n/a	289.023803949	289.039772987	290.039868116	n/a	20M_FE_O.jpg	24M_FE_O.jpg	24M_FE_O.jpg
290.202013016	1.834304094000004	face	0.836571931839	1.0	0.8	n/a	n/a	292.03631711	292.051575184	293.03521204	n/a	FAZ_23.jpg	FAX_25.jpg	FAX_25.jpg
293.237210989	1.800934075999976	face	0.784193992615	1.0	0.8	n/a	n/a	295.038145065	295.054934978	296.037691116	n/a	33M_FE_O.jpg	33M_FE_O.jpg	35M_FE_O.jpg
296.239779949	1.797869205999973	face	0.870421886444	1.0	0.8	n/a	n/a	298.037649155	298.053924084	299.03767395	n/a	01F_AN_O.jpg	01F_AN_O.jpg	02F_AN_O.jpg
299.271357059	1.7648200989999625	face	0.688534021378	1.0	0.8	n/a	n/a	301.036177158	301.053101063	302.036092043	n/a	MFZ_132.jpg	MFZ_132.jpg	MFZ_120.jpg
305.085147142	1.9493069650000048	shape	0.946908950806	1.0	0.8	302.172840118	305.034929037	307.034454107	307.050795078	308.034495115	n/a	oval-horizontal.bmp	oval-vertical.bmp	oval-vertical.bmp
308.185467005	1.8488869659999525	shape	0.709826946259	1.0	0.8	n/a	n/a	310.034353971	310.050333977	311.033035994	n/a	circle.bmp	oval-vertical.bmp	oval-vertical.bmp
311.212743998	1.8207919590000188	shape	1.5245039463	1.0	0.8	n/a	n/a	313.033535957	313.050126076	314.02937007	n/a	oval-horizontal.bmp	oval-horizontal.bmp	oval-vertical.bmp
314.180654049	1.851701020999997	shape	0.803865909576	1.0	0.8	n/a	n/a	316.03235507	316.049437046	317.032205105	n/a	oval-horizontal.bmp	oval-horizontal.bmp	circle.bmp
317.182679176	1.8494129179999843	shape	0.73647403717	1.0	0.8	n/a	n/a	319.032092094	319.048227072	320.030810118	n/a	circle.bmp	circle.bmp	oval-vertical.bmp
320.181166172	1.848992824999982	shape	0.769469976425	1.0	0.8	n/a	n/a	322.030158997	322.047216177	323.029399157	n/a	oval-horizontal.bmp	circle.bmp	circle.bmp
326.129796982	1.898760079999988	face	1.10370898247	1.0	0.8	323.141721964	326.029291153	328.028557062	328.045475006	329.02771616	n/a	17F_FE_O.jpg	18F_FE_O.jpg	18F_FE_O.jpg
329.221706152	1.8064098360000005	face	0.826327085495	1.0	0.8	n/a	n/a	331.028115988	331.043446064	332.027255058	n/a	42M_AN_O.jpg	43M_AN_O.jpg	43M_AN_O.jpg
332.223396063	1.816564083000003	face	0.820368051529	1.0	0.8	n/a	n/a	334.039960146	334.057262182	335.023554087	n/a	31M_FE_O.jpg	31M_FE_O.jpg	32M_FE_O.jpg
335.198853016	1.8281550410000025	face	0.886676073074	1.0	0.8	n/a	n/a	337.027008057	337.04321599	338.025648117	n/a	FAZ_212.jpg	FFZ_236.jpg	FFZ_236.jpg
338.210693121	1.8156318659999893	face	0.819540977478	1.0	0.8	n/a	n/a	340.026324987	340.042638063	341.024731159	n/a	06F_FE_O.jpg	06F_FE_O.jpg	08F_FE_O.jpg
341.192286015	1.832175970000037	face	0.786256074905	1.0	0.8	n/a	n/a	343.024461985	343.040430069	344.040167093	n/a	MAZ_128.jpg	MAZ_128.jpg	MAX_39.jpg
347.090950966	1.9478771690000367	shape	0.677500009537	1.0	0.8	344.159008026	347.039741039	349.038828135	349.056023121	350.038196087	n/a	circle.bmp	oval-vertical.bmp	oval-vertical.bmp
350.199978113	1.8381400110000072	shape	0.660158872604	1.0	0.8	n/a	n/a	352.038118124	352.054531097	353.037275076	n/a	oval-horizontal.bmp	oval-horizontal.bmp	circle.bmp
353.184600115	1.8500409119999968	shape	0.654361009598	1.0	0.8	n/a	n/a	355.034641027	355.051429033	356.03472209	n/a	oval-horizontal.bmp	oval-vertical.bmp	oval-vertical.bmp
356.188950062	1.848505973999977	shape	0.669880867004	1.0	0.8	n/a	n/a	358.037456036	358.054131031	359.036659002	n/a	oval-horizontal.bmp	circle.bmp	circle.bmp
359.206624031	1.8292269710000253	shape	0.804836988449	1.0	0.8	n/a	n/a	361.035851002	361.052309036	362.035259962	n/a	oval-horizontal.bmp	oval-horizontal.bmp	oval-vertical.bmp
362.186517954	1.8486142159999872	shape	0.800586938858	1.0	0.8	n/a	n/a	364.03513217	364.050723076	365.034145117	n/a	circle.bmp	circle.bmp	oval-vertical.bmp
368.101629972	1.931503057999976	face	0.642763853073	1.0	0.8	365.163795948	368.033710957	370.03313303	370.049935102	371.03187108	n/a	FFZ_18.jpg	FAZ_129.jpg	FAZ_129.jpg
371.23338604	1.798421143999974	face	0.910163164139	1.0	0.8	n/a	n/a	373.031807184	373.049057961	374.031263113	n/a	20M_FE_O.jpg	24M_FE_O.jpg	24M_FE_O.jpg
374.183165073	1.8457109930000115	face	0.620485067368	1.0	0.8	n/a	n/a	376.028876066	376.044842958	377.028465986	n/a	FAZ_23.jpg	FAX_25.jpg	FAX_25.jpg
377.230278015	1.8014121059999866	face	0.621531009674	1.0	0.8	n/a	n/a	379.031690121	379.04796195	380.029842138	n/a	33M_FE_O.jpg	33M_FE_O.jpg	35M_FE_O.jpg
380.248147964	1.7835540780000088	face	0.70286989212	1.0	0.8	n/a	n/a	382.031702042	382.046408176	383.031638145	n/a	01F_AN_O.jpg	01F_AN_O.jpg	02F_AN_O.jpg
383.213978052	1.8151860239999564	face	0.75154209137	1.0	0.8	n/a	n/a	385.029164076	385.046179056	386.027604103	394.426181078	MFZ_132.jpg	MFZ_132.jpg	MFZ_120.jpg
