onset	duration	trial_type	response_time	accuracy_binarized	tr_seconds	cueStartTime	cueEndTime	trialEndTime	fixStartTime	fixEndTime	runEndTime	stimLeft	stimTop	stimRight
11.0779531002	1.9499590396999995	shape	0.719132900238	1.0	0.8	8.02322506905	11.0105190277	13.0279121399	13.0441009998	14.026102066	n/a	oval-horizontal.bmp	oval-horizontal.bmp	oval-vertical.bmp
14.1437962055	1.8819990158000013	shape	0.919454097748	1.0	0.8	n/a	n/a	16.0257952213	16.0423150063	17.0248901844	n/a	oval-horizontal.bmp	oval-vertical.bmp	oval-vertical.bmp
17.1321921349	1.893266916200001	shape	0.56327009201	1.0	0.8	n/a	n/a	19.0254590511	19.0413951874	20.024379015	n/a	circle.bmp	circle.bmp	oval-vertical.bmp
20.1330990791	1.8910949231000025	shape	0.910691022873	1.0	0.8	n/a	n/a	22.0241940022	22.0412011147	23.023001194	n/a	circle.bmp	oval-vertical.bmp	oval-vertical.bmp
23.135477066	1.8880879879000003	shape	0.742937088013	1.0	0.8	n/a	n/a	25.0235650539	25.0395979881	26.0193271637	n/a	oval-horizontal.bmp	circle.bmp	circle.bmp
26.1367161274	1.8830659389	shape	0.7209649086	1.0	0.8	n/a	n/a	28.0197820663	28.0371110439	29.02227211	n/a	oval-horizontal.bmp	oval-horizontal.bmp	circle.bmp
32.0887579918	1.9324340820000003	face	0.785646915436	1.0	0.8	29.0986351967	32.0209891796	34.0211920738	34.0380091667	35.0205271244	n/a	FAZ_23.jpg	FAZ_23.jpg	FAX_43.jpg
35.1711800098	1.8489961625000009	face	0.820733070374	0.0	0.8	n/a	n/a	37.0201761723	37.0365920067	38.0185170174	n/a	26M_FE_O.jpg	26M_FE_O.jpg	27M_FE_O.BMP
38.1528360844	1.865848064399998	face	1.31681990623	1.0	0.8	n/a	n/a	40.0186841488	40.0356180668	41.0182161331	n/a	MFX_16.jpg	MFZ_50.jpg	MFZ_50.jpg
41.1777231693	1.8404428958999968	face	1.17549085617	1.0	0.8	n/a	n/a	43.0181660652	43.034304142	44.016782999	n/a	09F_AN_O.jpg	09F_AN_O.jpg	10F_AN_O.jpg
44.1679441929	1.8495488167000005	face	0.705864906311	1.0	0.8	n/a	n/a	46.0174930096	46.0337350368	47.0295100212	n/a	38M_AN_O.BMP	39M_AN_O.jpg	39M_AN_O.jpg
47.163818121	1.8530719279999983	face	0.687372922897	1.0	0.8	n/a	n/a	49.016890049	49.0337240696	50.0153532028	n/a	FFZ_102.jpg	FFX_130.jpg	FFX_130.jpg
53.0663599968	1.948637008699997	shape	0.765950918198	1.0	0.8	50.0947210789	53.0156002045	55.0149970055	55.0316970348	56.0141761303	n/a	oval-horizontal.bmp	oval-vertical.bmp	oval-vertical.bmp
56.1481230259	1.8824150562000028	shape	0.552790880203	1.0	0.8	n/a	n/a	58.0305380821	58.0465750694	59.029900074	n/a	circle.bmp	oval-vertical.bmp	oval-vertical.bmp
59.1379520893	1.8920669556000007	shape	0.746809959412	1.0	0.8	n/a	n/a	61.0300190449	61.046241045	62.0288381577	n/a	oval-horizontal.bmp	oval-horizontal.bmp	oval-vertical.bmp
62.1392591	1.8896229267000064	shape	0.64297413826	1.0	0.8	n/a	n/a	64.0288820267	64.0453221798	65.0281431675	n/a	oval-horizontal.bmp	oval-horizontal.bmp	circle.bmp
65.1396150589	1.8880259990999944	shape	0.72415804863	1.0	0.8	n/a	n/a	67.027641058	67.0444040298	68.0239541531	n/a	circle.bmp	circle.bmp	oval-vertical.bmp
68.1421310902	1.8852000236000064	shape	0.61897611618	1.0	0.8	n/a	n/a	70.0273311138	70.0432460308	71.026679039	n/a	oval-horizontal.bmp	circle.bmp	circle.bmp
74.1272580624	1.8975419997999976	face	1.18419313431	0.0	0.8	71.1047871113	74.0258131027	76.0248000622	76.041257143	77.0241091251	n/a	03F_FE_O.jpg	05F_FE_O.jpg	05F_FE_O.jpg
77.1582121849	1.8657050133000013	face	0.902130842209	1.0	0.8	n/a	n/a	79.0239171982	79.0403831005	80.023692131	n/a	FAZ_32.jpg	FAZ_32.jpg	FAX_45.jpg
80.1577870846	1.865546941700004	face	0.870287179947	1.0	0.8	n/a	n/a	82.0233340263	82.0393891335	83.0224101543	n/a	MAZ_128.jpg	MAZ_101.jpg	MAZ_101.jpg
83.183409214	1.839223861700006	face	1.01104688644	1.0	0.8	n/a	n/a	85.0226330757	85.0390000343	86.0218081474	n/a	11F_AN_O.jpg	11F_AN_O.jpg	12F_AN_O.jpg
86.1841480732	1.8370299338999985	face	0.758234977722	1.0	0.8	n/a	n/a	88.0211780071	88.0376901627	89.017357111	n/a	26M_FE_O.jpg	33M_FE_O.jpg	33M_FE_O.jpg
89.1523430347	1.8684551716000044	face	1.01946401596	1.0	0.8	n/a	n/a	91.0207982063	91.0378711224	92.0200769901	n/a	MFZ_132.jpg	MFZ_132.jpg	MFZ_120.jpg
95.0707461834	1.9486858844999944	shape	0.584295034409	1.0	0.8	92.1040952206	95.0199019909	97.0194320679	97.0356731415	98.0180871487	n/a	circle.bmp	oval-vertical.bmp	oval-vertical.bmp
98.1364531517	1.881819963300004	shape	0.602020978928	1.0	0.8	n/a	n/a	100.018273115	100.03502202	101.017660141	n/a	oval-horizontal.bmp	oval-horizontal.bmp	circle.bmp
101.135248184	1.8814888	shape	1.06066703796	1.0	0.8	n/a	n/a	103.016736984	103.03405118	104.016399145	n/a	oval-horizontal.bmp	oval-vertical.bmp	oval-vertical.bmp
104.127063036	1.889395952000001	shape	0.826705932617	1.0	0.8	n/a	n/a	106.016458988	106.032404184	107.016043186	n/a	oval-horizontal.bmp	circle.bmp	circle.bmp
107.127635002	1.8877801900000009	shape	0.506795883179	1.0	0.8	n/a	n/a	109.015415192	109.032188177	110.028165102	n/a	oval-horizontal.bmp	oval-horizontal.bmp	oval-vertical.bmp
110.146584988	1.8687250610000063	shape	0.716756105423	1.0	0.8	n/a	n/a	112.015310049	112.03178215	113.014554024	n/a	circle.bmp	circle.bmp	oval-vertical.bmp
116.098117113	1.9317069049999984	face	0.682186126709	1.0	0.8	113.100814104	116.030224085	118.029824018	118.045436144	119.029094219	n/a	FAZ_23.jpg	FAZ_23.jpg	FAX_43.jpg
119.17910099	1.8497550490000088	face	0.885676145554	1.0	0.8	n/a	n/a	121.028856039	121.044728041	122.028309107	n/a	26M_FE_O.jpg	26M_FE_O.jpg	27M_FE_O.BMP
122.162146091	1.8661329749999995	face	0.776895046234	1.0	0.8	n/a	n/a	124.028279066	124.044262171	125.026805162	n/a	MFZ_50.jpg	MFZ_50.jpg	MFX_16.jpg
125.187550068	1.8395040030000016	face	0.809948921204	1.0	0.8	n/a	n/a	127.027054071	127.043577194	128.025892019	n/a	10F_AN_O.jpg	09F_AN_O.jpg	09F_AN_O.jpg
128.189151049	1.836498022000001	face	0.841219186783	1.0	0.8	n/a	n/a	130.025649071	130.042855024	131.022605181	n/a	38M_AN_O.BMP	39M_AN_O.jpg	39M_AN_O.jpg
131.156996012	1.868588208999995	face	0.806494951248	1.0	0.8	n/a	n/a	133.025584221	133.041729212	134.024475098	n/a	FFZ_102.jpg	FFX_130.jpg	FFX_130.jpg
137.075362206	1.9482870100000007	shape	0.68438410759	1.0	0.8	134.143276215	137.023672104	139.023649216	139.039220095	140.022908211	n/a	oval-horizontal.bmp	oval-horizontal.bmp	oval-vertical.bmp
140.140604019	1.8815181260000031	shape	0.802603960037	1.0	0.8	n/a	n/a	142.022122145	142.038444042	143.022101164	n/a	oval-horizontal.bmp	oval-vertical.bmp	oval-vertical.bmp
143.13895607	1.8824360369999908	shape	0.59273314476	1.0	0.8	n/a	n/a	145.021392107	145.037662029	146.021055222	n/a	circle.bmp	circle.bmp	oval-vertical.bmp
146.13799715	1.882057906	shape	0.708775997162	1.0	0.8	n/a	n/a	148.020055056	148.037092209	149.01931119	n/a	circle.bmp	oval-vertical.bmp	oval-vertical.bmp
149.153930187	1.8662378790000105	shape	0.774733781815	1.0	0.8	n/a	n/a	151.020168066	151.03690505	152.016981125	n/a	oval-horizontal.bmp	circle.bmp	circle.bmp
152.134025097	1.8853859900000032	shape	0.767395973206	1.0	0.8	n/a	n/a	154.019411087	154.035421133	155.018668175	n/a	oval-horizontal.bmp	oval-horizontal.bmp	circle.bmp
158.103807211	1.9141519069999904	face	1.13170313835	0.0	0.8	155.119909048	158.018150091	160.017959118	160.034211159	161.016170025	n/a	20M_FE_O.jpg	21M_FE_O.jpg	21M_FE_O.jpg
161.184524059	1.831993103000002	face	0.833414077759	1.0	0.8	n/a	n/a	163.016517162	163.032548189	164.016013145	n/a	01F_AN_O.jpg	07F_AN_O.jpg	07F_AN_O.jpg
164.157152176	1.8577919009999848	face	0.679244041443	1.0	0.8	n/a	n/a	166.014944077	166.032165051	167.015015125	n/a	FFX_139.jpg	FFZ_102.jpg	FFZ_102.jpg
167.17534399	1.83909511600001	face	0.940494060516	1.0	0.8	n/a	n/a	169.014439106	169.030604124	170.014136076	n/a	23M_AN_O.jpg	23M_AN_O.jpg	22M_AN_O.jpg
170.148885012	1.879284143000007	face	0.71744799614	1.0	0.8	n/a	n/a	172.028169155	172.04423213	173.027749062	n/a	MAZ_146.jpg	MAZ_146.jpg	MAX_233.jpg
173.195659161	1.8346509929999968	face	0.922590970993	1.0	0.8	n/a	n/a	175.030310154	175.046905041	176.029158115	n/a	15F_FE_O.jpg	15F_FE_O.jpg	16F_FE_O.jpg
179.08020401	1.948431015000012	shape	0.800724029541	1.0	0.8	176.115599155	179.028566122	181.028635025	181.044191122	182.027597189	n/a	oval-horizontal.bmp	oval-vertical.bmp	oval-vertical.bmp
182.14440608	1.882878065	shape	0.66849398613	1.0	0.8	n/a	n/a	184.027284145	184.044093132	185.026678085	n/a	circle.bmp	oval-vertical.bmp	oval-vertical.bmp
185.143667221	1.8825838570000144	shape	0.66152882576	1.0	0.8	n/a	n/a	187.026251078	187.042716026	188.025528193	n/a	oval-horizontal.bmp	oval-horizontal.bmp	oval-vertical.bmp
188.143333197	1.8820569510000096	shape	0.641862869263	1.0	0.8	n/a	n/a	190.025390148	190.04184413	191.024651051	n/a	oval-horizontal.bmp	oval-horizontal.bmp	circle.bmp
191.142656088	1.8785459990000104	shape	0.703090906143	1.0	0.8	n/a	n/a	193.021202087	193.03848815	194.021105051	n/a	circle.bmp	circle.bmp	oval-vertical.bmp
194.139358997	1.884514094000025	shape	0.754821062088	1.0	0.8	n/a	n/a	196.023873091	196.040023088	197.023384094	n/a	oval-horizontal.bmp	circle.bmp	circle.bmp
200.089581013	1.932346105000022	face	0.652736902237	1.0	0.8	197.113162994	200.022294044	202.021927118	202.038545132	203.02110219	n/a	FFX_54.jpg	FFX_54.jpg	FAX_51.jpg
203.172495127	1.8488678930000049	face	0.702434062958	1.0	0.8	n/a	n/a	205.02136302	205.037328005	206.020738125	n/a	40M_FE_O.BMP	41M_FE_O.jpg	41M_FE_O.jpg
206.187582016	1.833047152000006	face	0.693913936615	1.0	0.8	n/a	n/a	208.020629168	208.037106037	209.019571066	n/a	29M_AN_O.jpg	29M_AN_O.jpg	28M_AN_O.jpg
209.16329813	1.8555538650000187	face	0.792181015015	1.0	0.8	n/a	n/a	211.018851995	211.035243988	212.018553019	n/a	FFZ_18.jpg	FFZ_29.jpg	FFZ_29.jpg
212.182154179	1.8330869669999856	face	0.820279121399	1.0	0.8	n/a	n/a	214.015241146	214.032431126	215.016295195	n/a	19F_AN_O.jpg	19F_AN_O.jpg	09F_AN_O.jpg
215.16743803	1.8509740830000112	face	0.771655797958	1.0	0.8	n/a	n/a	217.018412113	217.033981085	218.017439127	n/a	MFZ_132.jpg	MFZ_7.jpg	MFZ_7.jpg
221.066430092	1.9500560760000096	shape	0.720343112946	1.0	0.8	218.107838154	221.0158391	223.016486168	223.032841206	224.015492201	n/a	circle.bmp	oval-vertical.bmp	oval-vertical.bmp
224.137760162	1.8768329619999804	shape	0.647265911102	1.0	0.8	n/a	n/a	226.014593124	226.031215191	227.013962984	n/a	oval-horizontal.bmp	oval-horizontal.bmp	circle.bmp
227.173281193	1.840899944	shape	0.644657850266	1.0	0.8	n/a	n/a	229.014181137	229.0304842	230.029874086	n/a	oval-horizontal.bmp	oval-vertical.bmp	oval-vertical.bmp
230.157572985	1.8723142139999995	shape	0.658196926117	1.0	0.8	n/a	n/a	232.029887199	232.04552412	233.029575109	n/a	oval-horizontal.bmp	circle.bmp	circle.bmp
233.147086143	1.8794798860000128	shape	0.653615951538	1.0	0.8	n/a	n/a	235.026566029	235.043572187	236.028376102	n/a	oval-horizontal.bmp	oval-horizontal.bmp	oval-vertical.bmp
236.160575151	1.868582964000012	shape	0.654846906662	1.0	0.8	n/a	n/a	238.029158115	238.04551816	239.027527094	n/a	circle.bmp	circle.bmp	oval-vertical.bmp
242.11116004	1.915500164000008	face	0.735460996628	1.0	0.8	239.120149136	242.026996136	244.026660204	244.042649984	245.025690079	n/a	20M_FE_O.jpg	21M_FE_O.jpg	21M_FE_O.jpg
245.19276619	1.832193851000028	face	0.635761022568	1.0	0.8	n/a	n/a	247.024960041	247.042262077	248.024588108	n/a	07F_AN_O.jpg	07F_AN_O.jpg	01F_AN_O.jpg
248.175975084	1.848105908000008	face	0.793380022049	1.0	0.8	n/a	n/a	250.024080992	250.041299105	251.024067163	n/a	FFZ_102.jpg	FFZ_102.jpg	FFX_139.jpg
251.185914993	1.8380110269999927	face	0.972968101501	1.0	0.8	n/a	n/a	253.02392602	253.040758133	254.022852182	n/a	22M_AN_O.jpg	23M_AN_O.jpg	23M_AN_O.jpg
254.17049408	1.8504540919999783	face	0.836771011353	1.0	0.8	n/a	n/a	256.020948172	256.036774158	257.022782087	n/a	MAX_233.jpg	MAZ_146.jpg	MAZ_146.jpg
257.189042091	1.833220959000016	face	0.837496042252	1.0	0.8	n/a	n/a	259.02226305	259.039312124	260.022005081	n/a	15F_FE_O.jpg	15F_FE_O.jpg	16F_FE_O.jpg
263.071163177	1.9489989289999696	shape	0.602478981018	1.0	0.8	260.119186163	263.020884991	265.020162106	265.037176132	266.019039154	n/a	oval-horizontal.bmp	oval-horizontal.bmp	oval-vertical.bmp
266.143747091	1.8756299019999567	shape	0.729834079742	1.0	0.8	n/a	n/a	268.019376993	268.035647154	269.01872611	n/a	oval-horizontal.bmp	oval-vertical.bmp	oval-vertical.bmp
269.144644022	1.874210118999997	shape	0.543262958527	1.0	0.8	n/a	n/a	271.018854141	271.035242081	272.018074036	n/a	circle.bmp	circle.bmp	oval-vertical.bmp
272.146850109	1.8708260059999589	shape	0.575941801071	1.0	0.8	n/a	n/a	274.017676115	274.0338552	275.01732707	n/a	circle.bmp	oval-vertical.bmp	oval-vertical.bmp
275.147996187	1.8673160079999889	shape	0.736209869385	1.0	0.8	n/a	n/a	277.015312195	277.030901194	278.016898155	n/a	oval-horizontal.bmp	circle.bmp	circle.bmp
278.14914012	1.8676130769999872	shape	0.705310106277	1.0	0.8	n/a	n/a	280.016753197	280.032987118	281.01606822	n/a	oval-horizontal.bmp	oval-horizontal.bmp	circle.bmp
284.115098	1.8995890610000288	face	0.603266954422	1.0	0.8	281.111335039	284.031291008	286.014687061	286.03018117	287.013810158	n/a	FFZ_18.jpg	FAZ_129.jpg	FAZ_129.jpg
287.18118906	1.84907102599999	face	0.952690124512	1.0	0.8	n/a	n/a	289.030260086	289.046558142	290.029536009	n/a	20M_FE_O.jpg	24M_FE_O.jpg	24M_FE_O.jpg
290.172228098	1.8564929959999856	face	0.760895013809	1.0	0.8	n/a	n/a	292.028721094	292.045896053	293.027928114	n/a	FAZ_23.jpg	FAX_25.jpg	FAX_25.jpg
293.19613719	1.8323018550000256	face	1.3080060482	1.0	0.8	n/a	n/a	295.028439045	295.044392109	296.028051138	n/a	33M_FE_O.jpg	33M_FE_O.jpg	35M_FE_O.jpg
296.208580017	1.816785097000036	face	1.10348916054	1.0	0.8	n/a	n/a	298.025365114	298.041834116	299.027013063	n/a	01F_AN_O.jpg	01F_AN_O.jpg	02F_AN_O.jpg
299.176249027	1.850938082000028	face	1.02021789551	1.0	0.8	n/a	n/a	301.027187109	301.043860197	302.026485205	n/a	MFZ_132.jpg	MFZ_132.jpg	MFZ_120.jpg
305.076689005	1.948362111999984	shape	0.885356903076	1.0	0.8	302.123074055	305.025572062	307.025051117	307.040743113	308.024578094	n/a	oval-horizontal.bmp	oval-vertical.bmp	oval-vertical.bmp
308.158859015	1.8649790279999927	shape	0.586083889008	1.0	0.8	n/a	n/a	310.023838043	310.039898157	311.023313046	n/a	circle.bmp	oval-vertical.bmp	oval-vertical.bmp
311.150110006	1.873165131000008	shape	0.710798978806	1.0	0.8	n/a	n/a	313.023275137	313.039947033	314.022583008	n/a	oval-horizontal.bmp	oval-horizontal.bmp	oval-vertical.bmp
314.150572062	1.871315002000017	shape	0.674633026123	1.0	0.8	n/a	n/a	316.021887064	316.038760185	317.018618107	n/a	oval-horizontal.bmp	oval-horizontal.bmp	circle.bmp
317.153377056	1.8660199639999744	shape	0.667190074921	1.0	0.8	n/a	n/a	319.01939702	319.036168098	320.021359205	n/a	circle.bmp	circle.bmp	oval-vertical.bmp
320.154709101	1.8659429550000368	shape	0.638406038284	1.0	0.8	n/a	n/a	322.020652056	322.036590099	323.02007699	n/a	oval-horizontal.bmp	circle.bmp	circle.bmp
326.107685089	1.9105339050000223	face	0.699424982071	1.0	0.8	323.117877007	326.019334078	328.018218994	328.035368204	329.018032074	n/a	17F_FE_O.jpg	18F_FE_O.jpg	18F_FE_O.jpg
329.185508013	1.832660197999985	face	0.660198926926	1.0	0.8	n/a	n/a	331.018168211	331.034229994	332.016699076	n/a	42M_AN_O.jpg	43M_AN_O.jpg	43M_AN_O.jpg
332.193522215	1.8235418800000505	face	0.927534818649	1.0	0.8	n/a	n/a	334.017064095	334.033684015	335.015885115	n/a	31M_FE_O.jpg	31M_FE_O.jpg	32M_FE_O.jpg
335.178753138	1.8376319399999943	face	0.672346115112	1.0	0.8	n/a	n/a	337.016385078	337.033216	338.028928041	n/a	FAZ_212.jpg	FFZ_236.jpg	FFZ_236.jpg
338.199478149	1.8157310489999643	face	0.753226041794	1.0	0.8	n/a	n/a	340.015209198	340.032299995	341.015402079	n/a	06F_FE_O.jpg	06F_FE_O.jpg	08F_FE_O.jpg
341.164616108	1.8498790259999964	face	0.73734498024	1.0	0.8	n/a	n/a	343.014495134	343.031726122	344.014081001	n/a	MAZ_128.jpg	MAZ_128.jpg	MAX_39.jpg
347.08110404	1.9486010079999687	shape	0.719699859619	1.0	0.8	344.11382103	347.03006506	349.029705048	349.045284033	350.028321028	n/a	circle.bmp	oval-vertical.bmp	oval-vertical.bmp
350.162940025	1.8655540949999927	shape	0.544342041016	1.0	0.8	n/a	n/a	352.02849412	352.045021057	353.027654171	n/a	oval-horizontal.bmp	oval-horizontal.bmp	circle.bmp
353.154479027	1.873154163000038	shape	0.576807022095	1.0	0.8	n/a	n/a	355.02763319	355.044174194	356.026518106	n/a	oval-horizontal.bmp	oval-vertical.bmp	oval-vertical.bmp
356.172863007	1.8538432120000152	shape	1.05845594406	1.0	0.8	n/a	n/a	358.026706219	358.042806149	359.023145199	n/a	oval-horizontal.bmp	circle.bmp	circle.bmp
359.157958984	1.8687751300000173	shape	0.570173025131	1.0	0.8	n/a	n/a	361.026734114	361.042546034	362.024788141	n/a	oval-horizontal.bmp	oval-horizontal.bmp	oval-vertical.bmp
362.208357096	1.817011118000039	shape	0.636887073517	1.0	0.8	n/a	n/a	364.025368214	364.041583061	365.025058985	n/a	circle.bmp	circle.bmp	oval-vertical.bmp
368.091171026	1.93288517000002	face	0.66687297821	1.0	0.8	365.125546217	368.023815155	370.024056196	370.040211201	371.022447109	n/a	FFZ_18.jpg	FAZ_129.jpg	FAZ_129.jpg
371.199564219	1.8232669829999963	face	0.812283992767	1.0	0.8	n/a	n/a	373.022831202	373.039200068	374.02126503	n/a	20M_FE_O.jpg	24M_FE_O.jpg	24M_FE_O.jpg
374.172411203	1.8491859439999985	face	0.660283088684	1.0	0.8	n/a	n/a	376.021597147	376.038181067	377.020375013	n/a	FAZ_23.jpg	FAX_25.jpg	FAX_25.jpg
377.217248201	1.803888798000003	face	0.875324010849	1.0	0.8	n/a	n/a	379.021136999	379.037227154	380.016756058	n/a	33M_FE_O.jpg	33M_FE_O.jpg	35M_FE_O.jpg
380.201259136	1.8184180260000176	face	0.819056034088	1.0	0.8	n/a	n/a	382.019677162	382.036939144	383.019399166	n/a	01F_AN_O.jpg	01F_AN_O.jpg	02F_AN_O.jpg
383.20524621	1.8146917820000112	face	1.05370593071	1.0	0.8	n/a	n/a	385.019937992	385.035907984	386.018135071	394.416020155	MFZ_132.jpg	MFZ_132.jpg	MFZ_120.jpg
