onset	duration	trial_type	response_time	accuracy_binarized	tr_seconds	cueStartTime	cueEndTime	trialEndTime	fixStartTime	fixEndTime	runEndTime	stimLeft	stimTop	stimRight
11.0893189907	1.9499590396999995	shape	0.601161003113	1.0	0.8	8.03405785561	11.0258688927	13.0392780304	13.0551099777	14.0415780544	n/a	oval-horizontal.bmp	oval-horizontal.bmp	oval-vertical.bmp
14.1739709377	1.8666839600000007	shape	0.903926849365	1.0	0.8	n/a	n/a	16.0406548977	16.0579559803	17.0401940346	n/a	oval-horizontal.bmp	oval-vertical.bmp	oval-vertical.bmp
17.1573638916	1.8830890656	shape	0.768965959549	1.0	0.8	n/a	n/a	19.0404529572	19.0561730862	20.0384140015	n/a	circle.bmp	circle.bmp	oval-vertical.bmp
20.143337965	1.8952651024	shape	0.732270002365	1.0	0.8	n/a	n/a	22.0386030674	22.0552718639	23.0380558968	n/a	circle.bmp	oval-vertical.bmp	oval-vertical.bmp
23.1454820633	1.892833948099998	shape	0.746752023697	1.0	0.8	n/a	n/a	25.0383160114	25.0540568829	26.0375699997	n/a	oval-horizontal.bmp	circle.bmp	circle.bmp
26.1462609768	1.890386104600001	shape	0.895255088806	1.0	0.8	n/a	n/a	28.0366470814	28.0539479256	29.0365409851	n/a	oval-horizontal.bmp	oval-horizontal.bmp	circle.bmp
32.1029338837	1.9299821853000048	face	0.704387903214	1.0	0.8	29.1129510403	32.0351278782	34.032916069	34.0499548912	35.0349209309	n/a	FAZ_23.jpg	FAZ_23.jpg	FAX_43.jpg
35.1846859455	1.850161075599999	face	0.703587055206	1.0	0.8	n/a	n/a	37.0348470211	37.0517718792	38.0342390537	n/a	26M_FE_O.jpg	26M_FE_O.jpg	27M_FE_O.BMP
38.1678309441	1.8654160499000056	face	0.617757081985	1.0	0.8	n/a	n/a	40.033246994	40.0505480766	41.0326700211	n/a	MFX_16.jpg	MFZ_50.jpg	MFZ_50.jpg
41.1878340244	1.8448970318000024	face	0.615812063217	1.0	0.8	n/a	n/a	43.0327310562	43.0489690304	44.0323610306	n/a	09F_AN_O.jpg	09F_AN_O.jpg	10F_AN_O.jpg
44.1827659607	1.8486471175999952	face	0.636933088303	1.0	0.8	n/a	n/a	46.0314130783	46.0485870838	47.0310480595	n/a	38M_AN_O.BMP	39M_AN_O.jpg	39M_AN_O.jpg
47.1653439999	1.865366935699996	face	0.777095079422	1.0	0.8	n/a	n/a	49.0307109356	49.0478029251	50.0304119587	n/a	FFZ_102.jpg	FFX_130.jpg	FFX_130.jpg
53.0770599842	1.967917919200005	shape	0.587289094925	1.0	0.8	50.1086099148	53.0297470093	55.0449779034	55.060448885	56.0290808678	n/a	oval-horizontal.bmp	oval-vertical.bmp	oval-vertical.bmp
56.1456620693	1.8828828334999983	shape	0.604017972946	1.0	0.8	n/a	n/a	58.0285449028	58.0454230309	59.044178009	n/a	circle.bmp	oval-vertical.bmp	oval-vertical.bmp
59.1624228954	1.8825011254000048	shape	0.851161956787	1.0	0.8	n/a	n/a	61.0449240208	61.0612330437	62.04302001	n/a	oval-horizontal.bmp	oval-horizontal.bmp	oval-vertical.bmp
62.1616840363	1.8818428515999983	shape	0.93643116951	1.0	0.8	n/a	n/a	64.0435268879	64.0597949028	65.0426318645	n/a	oval-horizontal.bmp	oval-horizontal.bmp	circle.bmp
65.1499519348	1.892446994799997	shape	0.645179033279	1.0	0.8	n/a	n/a	67.0423989296	67.0591499805	68.0421130657	n/a	circle.bmp	circle.bmp	oval-vertical.bmp
68.1592428684	1.8823311329000063	shape	0.92450094223	1.0	0.8	n/a	n/a	70.0415740013	70.0580620766	71.0413939953	n/a	oval-horizontal.bmp	circle.bmp	circle.bmp
74.1383399963	1.902045011599995	face	0.850965976715	1.0	0.8	71.12748909	74.0399069786	76.0403850079	76.0567209721	77.0395219326	n/a	03F_FE_O.jpg	05F_FE_O.jpg	05F_FE_O.jpg
77.1728479862	1.8665299416000067	face	0.653918027878	1.0	0.8	n/a	n/a	79.0393779278	79.0555438995	80.0387830734	n/a	FAZ_32.jpg	FAZ_32.jpg	FAX_45.jpg
80.1733469963	1.865432977699996	face	1.06749415398	1.0	0.8	n/a	n/a	82.038779974	82.0547208786	83.0379860401	n/a	MAZ_128.jpg	MAZ_101.jpg	MAZ_101.jpg
83.1927158833	1.8445110321000016	face	0.865545034409	1.0	0.8	n/a	n/a	85.0372269154	85.0537259579	86.0361609459	n/a	11F_AN_O.jpg	11F_AN_O.jpg	12F_AN_O.jpg
86.1940350533	1.8423769473999985	face	0.662364006042	1.0	0.8	n/a	n/a	88.0364120007	88.052973032	89.0357809067	n/a	26M_FE_O.jpg	33M_FE_O.jpg	33M_FE_O.jpg
89.1619579792	1.8729190826000064	face	0.677735090256	1.0	0.8	n/a	n/a	91.0348770618	91.0520188808	92.0343959332	n/a	MFZ_132.jpg	MFZ_132.jpg	MFZ_120.jpg
95.082064867	1.952230215100002	shape	0.585520029068	1.0	0.8	92.1157460213	95.034101963	97.0342950821	97.0499739647	98.0331180096	n/a	circle.bmp	oval-vertical.bmp	oval-vertical.bmp
98.1500189304	1.8832049366000088	shape	0.63627409935	1.0	0.8	n/a	n/a	100.033223867	100.05012989	101.032692909	n/a	oval-horizontal.bmp	oval-horizontal.bmp	circle.bmp
101.150259018	1.882462024999996	shape	0.651347160339	1.0	0.8	n/a	n/a	103.032721043	103.048732042	104.031586885	n/a	oval-horizontal.bmp	oval-vertical.bmp	oval-vertical.bmp
104.149398088	1.8819758900000068	shape	0.637250900269	1.0	0.8	n/a	n/a	106.031373978	106.046851873	107.030463934	n/a	oval-horizontal.bmp	circle.bmp	circle.bmp
107.147667885	1.8825070859999893	shape	0.644882917404	1.0	0.8	n/a	n/a	109.030174971	109.046716928	110.029212952	n/a	oval-horizontal.bmp	oval-horizontal.bmp	oval-vertical.bmp
110.147021055	1.882298947000009	shape	0.643198013306	1.0	0.8	n/a	n/a	112.029320002	112.046324968	113.028544903	n/a	circle.bmp	circle.bmp	oval-vertical.bmp
116.110121012	1.9338049890000093	face	0.635881900787	1.0	0.8	113.112971067	116.045072079	118.043926001	118.061054945	119.044030905	n/a	FAZ_23.jpg	FAZ_23.jpg	FAX_43.jpg
119.19423008	1.8488688470000056	face	0.703518152237	1.0	0.8	n/a	n/a	121.043098927	121.059473991	122.043411016	n/a	26M_FE_O.jpg	26M_FE_O.jpg	27M_FE_O.BMP
122.177603006	1.865733861999999	face	0.934221029282	1.0	0.8	n/a	n/a	124.043336868	124.059016943	125.041395903	n/a	MFZ_50.jpg	MFZ_50.jpg	MFX_16.jpg
125.197314978	1.844435930000003	face	0.828909873962	1.0	0.8	n/a	n/a	127.041750908	127.058327913	128.041185856	n/a	10F_AN_O.jpg	09F_AN_O.jpg	09F_AN_O.jpg
128.191850901	1.849414109999998	face	0.758062839508	1.0	0.8	n/a	n/a	130.041265011	130.057226896	131.040445089	n/a	38M_AN_O.BMP	39M_AN_O.jpg	39M_AN_O.jpg
131.173999071	1.8654618260000009	face	0.94354891777	1.0	0.8	n/a	n/a	133.039460897	133.055717945	134.039541006	n/a	FFZ_102.jpg	FFX_130.jpg	FFX_130.jpg
137.08653307	1.9522240160000024	shape	0.502435207367	1.0	0.8	134.12585187	137.038425922	139.038757086	139.055330992	140.03827095	n/a	oval-horizontal.bmp	oval-horizontal.bmp	oval-vertical.bmp
140.154922009	1.882891893000021	shape	0.520299196243	1.0	0.8	n/a	n/a	142.037813902	142.054368973	143.037559032	n/a	oval-horizontal.bmp	oval-vertical.bmp	oval-vertical.bmp
143.188255072	1.847986935999984	shape	0.619615077972	1.0	0.8	n/a	n/a	145.036242008	145.052286863	146.035812855	n/a	circle.bmp	circle.bmp	oval-vertical.bmp
146.152895927	1.882297039000008	shape	0.736010074615	1.0	0.8	n/a	n/a	148.035192966	148.052330017	149.035438061	n/a	circle.bmp	oval-vertical.bmp	oval-vertical.bmp
149.152736902	1.882372141000019	shape	0.594403028488	1.0	0.8	n/a	n/a	151.035109043	151.051276922	152.034079075	n/a	oval-horizontal.bmp	circle.bmp	circle.bmp
152.151076078	1.8831088550000168	shape	0.825543165207	1.0	0.8	n/a	n/a	154.034184933	154.050374031	155.033437967	n/a	oval-horizontal.bmp	oval-horizontal.bmp	circle.bmp
158.131320953	1.9011321069999951	face	1.15452504158	1.0	0.8	155.122024059	158.032567024	160.03245306	160.048991919	161.031030893	n/a	20M_FE_O.jpg	21M_FE_O.jpg	21M_FE_O.jpg
161.199087858	1.832372188999983	face	0.702808141708	1.0	0.8	n/a	n/a	163.031460047	163.048496962	164.03114295	n/a	01F_AN_O.jpg	07F_AN_O.jpg	07F_AN_O.jpg
164.164707899	1.865956068000003	face	0.81978392601	1.0	0.8	n/a	n/a	166.030663967	166.046802998	167.029658079	n/a	FFX_139.jpg	FFZ_102.jpg	FFZ_102.jpg
167.197777987	1.831824064000017	face	0.687060117722	1.0	0.8	n/a	n/a	169.029602051	169.046020985	170.02895689	n/a	23M_AN_O.jpg	23M_AN_O.jpg	22M_AN_O.jpg
170.163326025	1.8656418319999943	face	0.777593851089	1.0	0.8	n/a	n/a	172.028967857	172.045520067	173.028321981	n/a	MAZ_146.jpg	MAZ_146.jpg	MAX_233.jpg
173.195689917	1.8490030760000025	face	0.709617137909	1.0	0.8	n/a	n/a	175.044692993	175.061305046	176.409316063	n/a	15F_FE_O.jpg	15F_FE_O.jpg	16F_FE_O.jpg
179.090635061	1.951433896999987	shape	0.66930603981	1.0	0.8	176.509799004	179.041707993	181.042068958	181.059062958	182.041239023	n/a	oval-horizontal.bmp	oval-vertical.bmp	oval-vertical.bmp
182.157814026	1.8823540209999976	shape	0.769095182419	1.0	0.8	n/a	n/a	184.040168047	184.056928873	185.040409088	n/a	circle.bmp	oval-vertical.bmp	oval-vertical.bmp
185.159514904	1.880491018000015	shape	0.600504875183	1.0	0.8	n/a	n/a	187.040005922	187.056082964	188.038419008	n/a	oval-horizontal.bmp	oval-horizontal.bmp	oval-vertical.bmp
188.156471014	1.882142066999989	shape	0.652210950851	1.0	0.8	n/a	n/a	190.038613081	190.05479908	191.037890911	n/a	oval-horizontal.bmp	oval-horizontal.bmp	circle.bmp
191.162334919	1.874673128000012	shape	0.663281917572	1.0	0.8	n/a	n/a	193.037008047	193.05408287	194.037160873	n/a	circle.bmp	circle.bmp	oval-vertical.bmp
194.155103922	1.8813691139999944	shape	0.726566076279	1.0	0.8	n/a	n/a	196.036473036	196.052571058	197.036422014	n/a	oval-horizontal.bmp	circle.bmp	circle.bmp
200.100512028	1.9348740579999912	face	0.537009000778	1.0	0.8	197.125336885	200.031982899	202.035386086	202.052072048	203.034337997	n/a	FFX_54.jpg	FFX_54.jpg	FAX_51.jpg
203.201258898	1.83347511300002	face	0.751285791397	1.0	0.8	n/a	n/a	205.034734011	205.050529003	206.032898903	n/a	40M_FE_O.BMP	41M_FE_O.jpg	41M_FE_O.jpg
206.200947046	1.831892967999977	face	0.670099973679	1.0	0.8	n/a	n/a	208.032840014	208.049684048	209.032386065	n/a	29M_AN_O.jpg	29M_AN_O.jpg	28M_AN_O.jpg
209.171350956	1.860163927000002	face	0.831292867661	1.0	0.8	n/a	n/a	211.031514883	211.04863596	212.03084898	n/a	FFZ_18.jpg	FFZ_29.jpg	FFZ_29.jpg
212.199051857	1.8318982119999987	face	0.802639961243	1.0	0.8	n/a	n/a	214.030950069	214.047796011	215.030813932	n/a	19F_AN_O.jpg	19F_AN_O.jpg	09F_AN_O.jpg
215.174144983	1.855674029	face	0.677155017853	1.0	0.8	n/a	n/a	217.029819012	217.046710968	218.029871941	n/a	MFZ_132.jpg	MFZ_7.jpg	MFZ_7.jpg
221.076488018	1.9529449940000063	shape	0.686335086823	1.0	0.8	218.12338686	221.028753996	223.029433012	223.045217991	224.044765949	n/a	circle.bmp	oval-vertical.bmp	oval-vertical.bmp
224.178755999	1.865284919000004	shape	0.635787963867	1.0	0.8	n/a	n/a	226.044040918	226.060947895	227.043111086	n/a	oval-horizontal.bmp	oval-horizontal.bmp	circle.bmp
227.16415	1.879040955999983	shape	0.652410984039	1.0	0.8	n/a	n/a	229.043190956	229.059532881	230.042461872	n/a	oval-horizontal.bmp	oval-vertical.bmp	oval-vertical.bmp
230.159925938	1.8827681540000183	shape	0.785607099533	1.0	0.8	n/a	n/a	232.042694092	232.058199883	233.041854858	n/a	oval-horizontal.bmp	circle.bmp	circle.bmp
233.15921092	1.882080078000001	shape	0.578263044357	1.0	0.8	n/a	n/a	235.041290998	235.058144093	236.040862083	n/a	oval-horizontal.bmp	oval-horizontal.bmp	oval-vertical.bmp
236.167958975	1.8718509670000003	shape	0.608993053436	1.0	0.8	n/a	n/a	238.039809942	238.057029963	239.039690018	n/a	circle.bmp	circle.bmp	oval-vertical.bmp
242.120239973	1.919680118999992	face	1.1380610466	1.0	0.8	239.132453918	242.036516905	244.039920092	244.055394888	245.03838706	n/a	20M_FE_O.jpg	21M_FE_O.jpg	21M_FE_O.jpg
245.205386877	1.8325819970000048	face	0.752151966095	1.0	0.8	n/a	n/a	247.037968874	247.054558039	248.037441015	n/a	07F_AN_O.jpg	07F_AN_O.jpg	01F_AN_O.jpg
248.188536882	1.8483970169999964	face	0.85245013237	1.0	0.8	n/a	n/a	250.036933899	250.053390026	251.035513878	n/a	FFZ_102.jpg	FFZ_102.jpg	FFX_139.jpg
251.203042984	1.8325040339999816	face	0.735716104507	1.0	0.8	n/a	n/a	253.035547018	253.051707029	254.034636974	n/a	22M_AN_O.jpg	23M_AN_O.jpg	23M_AN_O.jpg
254.177170992	1.857764959000036	face	0.860476016998	1.0	0.8	n/a	n/a	256.034935951	256.051450968	257.034466028	n/a	MAX_233.jpg	MAZ_146.jpg	MAZ_146.jpg
257.195108891	1.8392779819999987	face	0.841943979263	1.0	0.8	n/a	n/a	259.034386873	259.050008059	260.033360004	n/a	15F_FE_O.jpg	15F_FE_O.jpg	16F_FE_O.jpg
263.081546068	1.9509868619999795	shape	0.605687856674	1.0	0.8	260.129765987	263.030157089	265.03253293	265.049097061	266.031812906	n/a	oval-horizontal.bmp	oval-horizontal.bmp	oval-vertical.bmp
266.166730881	1.8651390070000389	shape	0.702391862869	1.0	0.8	n/a	n/a	268.031869888	268.048173904	269.031178951	n/a	oval-horizontal.bmp	oval-vertical.bmp	oval-vertical.bmp
269.150722027	1.878739834000044	shape	0.631457090378	1.0	0.8	n/a	n/a	271.029461861	271.04685092	272.029463053	n/a	circle.bmp	circle.bmp	oval-vertical.bmp
272.152545929	1.876894950999997	shape	0.631467103958	1.0	0.8	n/a	n/a	274.02944088	274.04531908	275.045259953	n/a	circle.bmp	oval-vertical.bmp	oval-vertical.bmp
275.179311037	1.8492639070000223	shape	0.728343963623	0.0	0.8	n/a	n/a	277.028574944	277.045280933	278.043943882	n/a	oval-horizontal.bmp	circle.bmp	circle.bmp
278.171701908	1.8724150660000305	shape	0.876400947571	1.0	0.8	n/a	n/a	280.044116974	280.060689926	281.043042898	n/a	oval-horizontal.bmp	oval-horizontal.bmp	circle.bmp
284.108375072	1.9346218109999995	face	0.68788599968	1.0	0.8	281.136986971	284.042716026	286.042996883	286.059314013	287.041929007	n/a	FFZ_18.jpg	FAZ_129.jpg	FAZ_129.jpg
287.226938009	1.815183878000028	face	1.2694401741	1.0	0.8	n/a	n/a	289.042121887	289.058636904	290.041405916	n/a	20M_FE_O.jpg	24M_FE_O.jpg	24M_FE_O.jpg
290.191843033	1.8482489579999992	face	0.819042921066	1.0	0.8	n/a	n/a	292.040091991	292.057277918	293.040055037	n/a	FAZ_23.jpg	FAX_25.jpg	FAX_25.jpg
293.20749402	1.831981897999981	face	0.886585950851	1.0	0.8	n/a	n/a	295.039475918	295.056036949	296.039129972	n/a	33M_FE_O.jpg	33M_FE_O.jpg	35M_FE_O.jpg
296.213777065	1.8247358799999915	face	0.944029092789	1.0	0.8	n/a	n/a	298.038512945	298.055149078	299.037791014	n/a	01F_AN_O.jpg	01F_AN_O.jpg	02F_AN_O.jpg
299.188123941	1.849416018	face	0.908468961716	1.0	0.8	n/a	n/a	301.037539959	301.054260015	302.036973	n/a	MFZ_132.jpg	MFZ_132.jpg	MFZ_120.jpg
305.084810019	1.9513959880000016	shape	0.771605014801	1.0	0.8	302.136492968	305.035887957	307.036206007	307.052259922	308.035763979	n/a	oval-horizontal.bmp	oval-vertical.bmp	oval-vertical.bmp
308.170158863	1.8653800490000088	shape	1.01871609688	1.0	0.8	n/a	n/a	310.035538912	310.051661015	311.034323931	n/a	circle.bmp	oval-vertical.bmp	oval-vertical.bmp
311.16873908	1.864697933999992	shape	0.785914182663	1.0	0.8	n/a	n/a	313.033437014	313.050586939	314.033499002	n/a	oval-horizontal.bmp	oval-horizontal.bmp	oval-vertical.bmp
314.156957865	1.87566709500004	shape	0.846879959106	1.0	0.8	n/a	n/a	316.03262496	316.049751043	317.032703876	n/a	oval-horizontal.bmp	oval-horizontal.bmp	circle.bmp
317.158047915	1.874243974000024	shape	0.761168003082	1.0	0.8	n/a	n/a	319.032291889	319.048058987	320.031646967	n/a	circle.bmp	circle.bmp	oval-vertical.bmp
320.159812927	1.8714931009999989	shape	0.792824983597	1.0	0.8	n/a	n/a	322.031306028	322.047852039	323.030377865	n/a	oval-horizontal.bmp	circle.bmp	circle.bmp
326.128511906	1.9017491339999992	face	1.13671684265	1.0	0.8	323.126329899	326.030114889	328.03026104	328.04666996	329.029150963	n/a	17F_FE_O.jpg	18F_FE_O.jpg	18F_FE_O.jpg
329.213685989	1.8147890569999845	face	0.984596967697	1.0	0.8	n/a	n/a	331.028475046	331.04458499	332.028318882	n/a	42M_AN_O.jpg	43M_AN_O.jpg	43M_AN_O.jpg
332.198267937	1.8458290099999888	face	0.916819095612	1.0	0.8	n/a	n/a	334.044096947	334.060164928	335.043354988	n/a	31M_FE_O.jpg	31M_FE_O.jpg	32M_FE_O.jpg
335.194068909	1.8491511340000104	face	0.802359104156	1.0	0.8	n/a	n/a	337.043220043	337.059715986	338.042361975	n/a	FAZ_212.jpg	FFZ_236.jpg	FFZ_236.jpg
338.217899084	1.8245038989999784	face	0.677195072174	1.0	0.8	n/a	n/a	340.042402983	340.058892012	341.042043924	n/a	06F_FE_O.jpg	06F_FE_O.jpg	08F_FE_O.jpg
341.192713022	1.848362922999968	face	0.741572856903	1.0	0.8	n/a	n/a	343.041075945	343.05812192	344.040770054	n/a	MAZ_128.jpg	MAZ_128.jpg	MAX_39.jpg
347.088950872	1.9513912209999944	shape	0.75471496582	1.0	0.8	344.138109922	347.039813042	349.040342093	349.056905031	350.039258957	n/a	circle.bmp	oval-vertical.bmp	oval-vertical.bmp
350.173328876	1.865509986999996	shape	0.854281187057	1.0	0.8	n/a	n/a	352.038838863	352.0555439	353.037978888	n/a	oval-horizontal.bmp	oval-horizontal.bmp	circle.bmp
353.172677994	1.8655760289999528	shape	0.786150932312	1.0	0.8	n/a	n/a	355.038254023	355.054245949	356.037297964	n/a	oval-horizontal.bmp	oval-vertical.bmp	oval-vertical.bmp
356.17097497	1.8661971090000409	shape	0.952351093292	1.0	0.8	n/a	n/a	358.037172079	358.053026915	359.036303043	n/a	oval-horizontal.bmp	circle.bmp	circle.bmp
359.16978097	1.8660600180000413	shape	0.810575008392	1.0	0.8	n/a	n/a	361.035840988	361.052222013	362.034812927	n/a	oval-horizontal.bmp	oval-horizontal.bmp	oval-vertical.bmp
362.169553041	1.8654060370000136	shape	0.592808008194	1.0	0.8	n/a	n/a	364.034959078	364.051740885	365.03440094	n/a	circle.bmp	circle.bmp	oval-vertical.bmp
368.099672079	1.9334378240000087	face	0.787515163422	1.0	0.8	365.135710955	368.033930063	370.033109903	370.049562931	371.032366037	n/a	FFZ_18.jpg	FAZ_129.jpg	FAZ_129.jpg
371.217033863	1.814887047000013	face	1.43460392952	1.0	0.8	n/a	n/a	373.03192091	373.04940486	374.031115055	n/a	20M_FE_O.jpg	24M_FE_O.jpg	24M_FE_O.jpg
374.181717873	1.8494660849999605	face	0.952072143555	1.0	0.8	n/a	n/a	376.031183958	376.047347069	377.029965878	n/a	FAZ_23.jpg	FAX_25.jpg	FAX_25.jpg
377.204580069	1.825078964	face	0.862473964691	1.0	0.8	n/a	n/a	379.029659033	379.046742916	380.029885054	n/a	33M_FE_O.jpg	33M_FE_O.jpg	35M_FE_O.jpg
380.205672026	1.8240199090000144	face	0.97795009613	1.0	0.8	n/a	n/a	382.029691935	382.045332909	383.028321981	n/a	01F_AN_O.jpg	01F_AN_O.jpg	02F_AN_O.jpg
383.190191984	1.838201045999995	face	0.774924993515	1.0	0.8	n/a	n/a	385.02839303	385.044420958	386.041385889	394.442569971	MFZ_132.jpg	MFZ_132.jpg	MFZ_120.jpg
