onset	duration	trial_type	response_time	accuracy_binarized	tr_seconds	cueStartTime	cueEndTime	trialEndTime	fixStartTime	fixEndTime	runEndTime	stimLeft	stimTop	stimRight
11.0917978287	1.9497821331	shape	0.819893836975	1.0	0.8	8.03796601295	11.0278289318	13.0415799618	13.058483839	14.0434849262	n/a	oval-horizontal.bmp	oval-horizontal.bmp	oval-vertical.bmp
14.177697897	1.8661880493000016	shape	1.27118802071	1.0	0.8	n/a	n/a	16.0438859463	16.0604598522	17.0433518887	n/a	oval-horizontal.bmp	oval-vertical.bmp	oval-vertical.bmp
17.1611459255	1.8816740512999992	shape	0.851482152939	1.0	0.8	n/a	n/a	19.0428199768	19.0591988564	20.0421619415	n/a	circle.bmp	circle.bmp	oval-vertical.bmp
20.1462359428	1.8951599598000008	shape	0.781826019287	1.0	0.8	n/a	n/a	22.0413959026	22.0573270321	23.041025877	n/a	circle.bmp	oval-vertical.bmp	oval-vertical.bmp
23.1581668854	1.8824341296999985	shape	1.05314302444	1.0	0.8	n/a	n/a	25.0406010151	25.0573689938	26.0396108627	n/a	oval-horizontal.bmp	circle.bmp	circle.bmp
26.1495449543	1.8900129795	shape	0.894492864609	1.0	0.8	n/a	n/a	28.0395579338	28.0559518337	29.0388698578	n/a	oval-horizontal.bmp	oval-horizontal.bmp	circle.bmp
32.1054170132	1.9313538074000007	face	0.984751939774	1.0	0.8	29.1157588959	32.0382828712	34.0367708206	34.0530569553	35.0375859737	n/a	FAZ_23.jpg	FAZ_23.jpg	FAX_43.jpg
35.1865718365	1.8509531021	face	1.202450037	1.0	0.8	n/a	n/a	37.0375249386	37.0541570187	38.0359859467	n/a	26M_FE_O.jpg	26M_FE_O.jpg	27M_FE_O.BMP
38.1716217995	1.864467143999996	face	1.03564286232	1.0	0.8	n/a	n/a	40.0360889435	40.0528459549	41.0357608795	n/a	MFX_16.jpg	MFZ_50.jpg	MFZ_50.jpg
41.190735817	1.8443460464000048	face	0.979660987854	1.0	0.8	n/a	n/a	43.0350818634	43.0513958931	44.0344059467	n/a	09F_AN_O.jpg	09F_AN_O.jpg	10F_AN_O.jpg
44.1851599216	1.8492100239000069	face	1.25221896172	1.0	0.8	n/a	n/a	46.0343699455	46.0503330231	47.0335519314	n/a	38M_AN_O.BMP	39M_AN_O.jpg	39M_AN_O.jpg
47.1677818298	1.8656461238999995	face	1.37747192383	1.0	0.8	n/a	n/a	49.0334279537	49.0493090153	50.0317809582	n/a	FFZ_102.jpg	FFX_130.jpg	FFX_130.jpg
53.0798258781	1.966952085499997	shape	1.17107892036	1.0	0.8	50.1105489731	53.0319638252	55.0467779636	55.0626168251	56.0471448898	n/a	oval-horizontal.bmp	oval-vertical.bmp	oval-vertical.bmp
56.1640639305	1.8838760853000025	shape	0.868882894516	1.0	0.8	n/a	n/a	58.0479400158	58.0638918877	59.0464658737	n/a	circle.bmp	oval-vertical.bmp	oval-vertical.bmp
59.1648278236	1.8816790580999976	shape	0.73243188858	1.0	0.8	n/a	n/a	61.0465068817	61.0630879402	62.0457429886	n/a	oval-horizontal.bmp	oval-horizontal.bmp	oval-vertical.bmp
62.1625099182	1.8828170299999984	shape	0.818918228149	1.0	0.8	n/a	n/a	64.0453269482	64.0619499683	65.0436909199	n/a	oval-horizontal.bmp	oval-horizontal.bmp	circle.bmp
65.1620359421	1.8819918632	shape	1.20486903191	1.0	0.8	n/a	n/a	67.0440278053	67.0608768463	68.0440850258	n/a	circle.bmp	circle.bmp	oval-vertical.bmp
68.1539378166	1.889662027399993	shape	1.34415602684	1.0	0.8	n/a	n/a	70.043599844	70.0597698689	71.0418059826	n/a	oval-horizontal.bmp	circle.bmp	circle.bmp
74.1407198906	1.9006109238000024	face	n/a	0.0	0.8	71.1211760044	74.0419569016	76.0413308144	76.0585589409	77.0404169559	n/a	03F_FE_O.jpg	05F_FE_O.jpg	05F_FE_O.jpg
77.175041914	1.8658869265999984	face	1.03641891479	1.0	0.8	n/a	n/a	79.0409288406	79.0582330227	80.0401890278	n/a	FAZ_32.jpg	FAZ_32.jpg	FAX_45.jpg
80.1913349628	1.8490970135	face	1.68420004845	0.0	0.8	n/a	n/a	82.0404319763	82.0561289787	83.0384340286	n/a	MAZ_128.jpg	MAZ_101.jpg	MAZ_101.jpg
83.1944639683	1.843735933299996	face	1.44778800011	0.0	0.8	n/a	n/a	85.0381999016	85.0554049015	86.0380249023	n/a	11F_AN_O.jpg	11F_AN_O.jpg	12F_AN_O.jpg
86.1886940002	1.849344968799997	face	1.64376282692	1.0	0.8	n/a	n/a	88.038038969	88.0541830063	89.0363149643	n/a	26M_FE_O.jpg	33M_FE_O.jpg	33M_FE_O.jpg
89.1716659069	1.864761114099992	face	1.16212201118	1.0	0.8	n/a	n/a	91.036427021	91.0536909103	92.0366458893	n/a	MFZ_132.jpg	MFZ_132.jpg	MFZ_120.jpg
95.0833740234	1.952361822200004	shape	0.936452865601	1.0	0.8	92.1161739826	95.0325980186	97.0357358456	97.0516438484	98.0344629288	n/a	circle.bmp	oval-vertical.bmp	oval-vertical.bmp
98.151403904	1.8835771079999968	shape	0.822508096695	1.0	0.8	n/a	n/a	100.034981012	100.05051899	101.033823013	n/a	oval-horizontal.bmp	oval-horizontal.bmp	circle.bmp
101.184420824	1.8484690190000064	shape	0.866936922073	1.0	0.8	n/a	n/a	103.032889843	103.050199986	104.032646894	n/a	oval-horizontal.bmp	oval-vertical.bmp	oval-vertical.bmp
104.15008688	1.881902932999992	shape	0.886750936508	1.0	0.8	n/a	n/a	106.031989813	106.048282862	107.031881809	n/a	oval-horizontal.bmp	circle.bmp	circle.bmp
107.149161816	1.898988008000004	shape	0.710489988327	1.0	0.8	n/a	n/a	109.048149824	109.064227819	110.047711849	n/a	oval-horizontal.bmp	oval-horizontal.bmp	oval-vertical.bmp
110.164969921	1.882193089000012	shape	0.860181093216	1.0	0.8	n/a	n/a	112.04716301	112.063655853	113.046331882	n/a	circle.bmp	circle.bmp	oval-vertical.bmp
116.110810995	1.9352610110000088	face	0.671674966812	1.0	0.8	113.129244804	116.046104908	118.046072006	118.062201977	119.045203924	n/a	FAZ_23.jpg	FAZ_23.jpg	FAX_43.jpg
119.197638988	1.8473079210000087	face	0.816354036331	1.0	0.8	n/a	n/a	121.044946909	121.060925007	122.043992996	n/a	26M_FE_O.jpg	26M_FE_O.jpg	27M_FE_O.BMP
122.177814007	1.8662269109999985	face	0.869318008423	1.0	0.8	n/a	n/a	124.044040918	124.06041193	125.042402983	n/a	MFZ_50.jpg	MFZ_50.jpg	MFX_16.jpg
125.19857192	1.84341311499999	face	1.01514291763	1.0	0.8	n/a	n/a	127.041985035	127.058401823	128.041895866	n/a	10F_AN_O.jpg	09F_AN_O.jpg	09F_AN_O.jpg
128.182909012	1.8581528659999835	face	1.2789709568	1.0	0.8	n/a	n/a	130.041061878	130.057749033	131.040307999	n/a	38M_AN_O.BMP	39M_AN_O.jpg	39M_AN_O.jpg
131.17474103	1.86548900599999	face	1.45927214622	1.0	0.8	n/a	n/a	133.040230036	133.056528807	134.040174007	n/a	FFZ_102.jpg	FFX_130.jpg	FFX_130.jpg
137.088135958	1.951328993000004	shape	0.634518146515	1.0	0.8	134.127171993	137.039469957	139.039464951	139.055347919	140.038708925	n/a	oval-horizontal.bmp	oval-horizontal.bmp	oval-vertical.bmp
140.156057835	1.8817391389999896	shape	0.701416969299	1.0	0.8	n/a	n/a	142.037796974	142.055123806	143.037475824	n/a	oval-horizontal.bmp	oval-vertical.bmp	oval-vertical.bmp
143.155381918	1.881875038000004	shape	0.617230892181	1.0	0.8	n/a	n/a	145.037256956	145.052845955	146.035758018	n/a	circle.bmp	circle.bmp	oval-vertical.bmp
146.154074907	1.8821449280000024	shape	0.80002784729	1.0	0.8	n/a	n/a	148.036219835	148.052886009	149.035194874	n/a	circle.bmp	oval-vertical.bmp	oval-vertical.bmp
149.152145863	1.88283300400002	shape	n/a	0.0	0.8	n/a	n/a	151.034978867	151.051057816	152.034565926	n/a	oval-horizontal.bmp	circle.bmp	circle.bmp
152.15175581	1.8827390669999888	shape	0.692812919617	1.0	0.8	n/a	n/a	154.034494877	154.050078869	155.033612013	n/a	oval-horizontal.bmp	oval-horizontal.bmp	circle.bmp
158.13138485	1.9018151760000137	face	1.52222919464	1.0	0.8	155.118705988	158.032836914	160.033200026	160.04912591	161.031777859	n/a	20M_FE_O.jpg	21M_FE_O.jpg	21M_FE_O.jpg
161.200183868	1.848710060999992	face	1.2527551651	1.0	0.8	n/a	n/a	163.048893929	163.064646959	164.047160864	n/a	01F_AN_O.jpg	07F_AN_O.jpg	07F_AN_O.jpg
164.182293892	1.8651919360000024	face	1.51801776886	1.0	0.8	n/a	n/a	166.047485828	166.063030005	167.046695948	n/a	FFX_139.jpg	FFZ_102.jpg	FFZ_102.jpg
167.214592934	1.8309919830000183	face	1.36803793907	1.0	0.8	n/a	n/a	169.045584917	169.061931849	170.045655012	n/a	23M_AN_O.jpg	23M_AN_O.jpg	22M_AN_O.jpg
170.179812908	1.865453959000007	face	1.11021709442	1.0	0.8	n/a	n/a	172.045266867	172.061187029	173.044760942	n/a	MAZ_146.jpg	MAZ_146.jpg	MAX_233.jpg
173.204872847	1.839437961000016	face	n/a	0.0	0.8	n/a	n/a	175.044310808	175.061045885	176.043299913	n/a	15F_FE_O.jpg	15F_FE_O.jpg	16F_FE_O.jpg
179.091020823	1.952439068999979	shape	0.838489055634	0.0	0.8	176.130679846	179.042923927	181.043459892	181.059509993	182.042784929	n/a	oval-horizontal.bmp	oval-vertical.bmp	oval-vertical.bmp
182.17612195	1.865458964999988	shape	0.80228304863	1.0	0.8	n/a	n/a	184.041580915	184.057705879	185.040875912	n/a	circle.bmp	oval-vertical.bmp	oval-vertical.bmp
185.158444881	1.8823390009999912	shape	0.818988084793	1.0	0.8	n/a	n/a	187.040783882	187.057250977	188.039309978	n/a	oval-horizontal.bmp	oval-horizontal.bmp	oval-vertical.bmp
188.157694817	1.8815782070000184	shape	0.717174053192	1.0	0.8	n/a	n/a	190.039273024	190.056474924	191.038615942	n/a	oval-horizontal.bmp	oval-horizontal.bmp	circle.bmp
191.172478914	1.866352081999992	shape	0.711827993393	1.0	0.8	n/a	n/a	193.038830996	193.055508852	194.038209915	n/a	circle.bmp	circle.bmp	oval-vertical.bmp
194.165504932	1.871710062000005	shape	0.925625085831	1.0	0.8	n/a	n/a	196.037214994	196.053678036	197.037388802	n/a	oval-horizontal.bmp	circle.bmp	circle.bmp
200.101449013	1.935406922999988	face	0.839205980301	1.0	0.8	197.124046803	200.036046028	202.036855936	202.053349972	203.036324024	n/a	FFX_54.jpg	FFX_54.jpg	FAX_51.jpg
203.186137915	1.8485789300000024	face	1.3503370285	1.0	0.8	n/a	n/a	205.034716845	205.052155018	206.034164906	n/a	40M_FE_O.BMP	41M_FE_O.jpg	41M_FE_O.jpg
206.201977015	1.8322868340000007	face	0.935768842697	1.0	0.8	n/a	n/a	208.034263849	208.049997807	209.033427954	n/a	29M_AN_O.jpg	29M_AN_O.jpg	28M_AN_O.jpg
209.173907995	1.8593728539999856	face	1.26359605789	1.0	0.8	n/a	n/a	211.033280849	211.049932957	212.032658815	n/a	FFZ_18.jpg	FFZ_29.jpg	FFZ_29.jpg
212.207365036	1.8249068259999888	face	1.04220318794	1.0	0.8	n/a	n/a	214.032271862	214.048180819	215.031744957	n/a	19F_AN_O.jpg	19F_AN_O.jpg	09F_AN_O.jpg
215.165817976	1.8824210170000129	face	0.74232506752	1.0	0.8	n/a	n/a	217.048238993	217.064697027	218.047546864	n/a	MFZ_132.jpg	MFZ_7.jpg	MFZ_7.jpg
221.096408844	1.950374126000014	shape	0.788582801819	1.0	0.8	218.140091896	221.047158003	223.04678297	223.063534021	224.046237946	n/a	circle.bmp	oval-vertical.bmp	oval-vertical.bmp
224.179745913	1.8661599149999968	shape	0.636188983917	1.0	0.8	n/a	n/a	226.045905828	226.061998844	227.044554949	n/a	oval-horizontal.bmp	oval-horizontal.bmp	circle.bmp
227.245888948	1.7986969950000002	shape	0.586287021637	1.0	0.8	n/a	n/a	229.044585943	229.061086893	230.043964863	n/a	oval-horizontal.bmp	oval-vertical.bmp	oval-vertical.bmp
230.167039871	1.876815081000018	shape	0.71368598938	1.0	0.8	n/a	n/a	232.043854952	232.059841871	233.042079926	n/a	oval-horizontal.bmp	circle.bmp	circle.bmp
233.168624878	1.8736920359999945	shape	0.611552000046	1.0	0.8	n/a	n/a	235.042316914	235.059406996	236.041960955	n/a	oval-horizontal.bmp	oval-horizontal.bmp	oval-vertical.bmp
236.169902802	1.871652126000015	shape	0.639168024063	1.0	0.8	n/a	n/a	238.041554928	238.058275938	239.040889978	n/a	circle.bmp	circle.bmp	oval-vertical.bmp
242.13901782	1.901193142000011	face	1.30407905579	1.0	0.8	239.134346962	242.040290833	244.040210962	244.056599855	245.039902925	n/a	20M_FE_O.jpg	21M_FE_O.jpg	21M_FE_O.jpg
245.206823826	1.8327000139999825	face	1.06825685501	1.0	0.8	n/a	n/a	247.03952384	247.056638956	248.038333893	n/a	07F_AN_O.jpg	07F_AN_O.jpg	01F_AN_O.jpg
248.188768864	1.8494260310000072	face	1.28555488586	1.0	0.8	n/a	n/a	250.038194895	250.054064035	251.036333799	n/a	FFZ_102.jpg	FFZ_102.jpg	FFX_139.jpg
251.206825972	1.8298959730000208	face	0.950859069824	1.0	0.8	n/a	n/a	253.036721945	253.053687811	254.03617382	n/a	22M_AN_O.jpg	23M_AN_O.jpg	23M_AN_O.jpg
254.178970814	1.8571271890000105	face	0.911266803741	1.0	0.8	n/a	n/a	256.036098003	256.052489996	257.035450935	n/a	MAX_233.jpg	MAZ_146.jpg	MAZ_146.jpg
257.202397823	1.8328280449999848	face	1.05793881416	1.0	0.8	n/a	n/a	259.035225868	259.051867962	260.034122944	n/a	15F_FE_O.jpg	15F_FE_O.jpg	16F_FE_O.jpg
263.084299803	1.9493880269999977	shape	0.704452991486	1.0	0.8	260.12943697	263.031518936	265.03368783	265.050689936	266.033565998	n/a	oval-horizontal.bmp	oval-horizontal.bmp	oval-vertical.bmp
266.167420864	1.865256070999976	shape	0.816059827805	1.0	0.8	n/a	n/a	268.032676935	268.048803806	269.032085896	n/a	oval-horizontal.bmp	oval-vertical.bmp	oval-vertical.bmp
269.166786909	1.8651740550000115	shape	0.666397094727	1.0	0.8	n/a	n/a	271.031960964	271.047449827	272.046664953	n/a	circle.bmp	circle.bmp	oval-vertical.bmp
272.197911024	1.848228931999984	shape	0.719852209091	1.0	0.8	n/a	n/a	274.046139956	274.063522816	275.046100855	n/a	circle.bmp	oval-vertical.bmp	oval-vertical.bmp
275.199105978	1.847442865000005	shape	0.776022911072	1.0	0.8	n/a	n/a	277.046548843	277.062947035	278.045889854	n/a	oval-horizontal.bmp	circle.bmp	circle.bmp
278.173569918	1.8719110490000048	shape	0.658386945724	1.0	0.8	n/a	n/a	280.045480967	280.061839819	281.04122591	n/a	oval-horizontal.bmp	oval-horizontal.bmp	circle.bmp
284.109935999	1.9344139099999893	face	0.734878063202	1.0	0.8	281.136868954	284.044373035	286.044349909	286.060230017	287.043038845	n/a	FFZ_18.jpg	FAZ_129.jpg	FAZ_129.jpg
287.227310896	1.816143989000011	face	0.70197892189	1.0	0.8	n/a	n/a	289.043454885	289.059329033	290.042465925	n/a	20M_FE_O.jpg	24M_FE_O.jpg	24M_FE_O.jpg
290.193269014	1.8480119710000047	face	0.934743881226	1.0	0.8	n/a	n/a	292.041280985	292.058164835	293.040498018	n/a	FAZ_23.jpg	FAX_25.jpg	FAX_25.jpg
293.214444876	1.826373100000012	face	0.980322122574	1.0	0.8	n/a	n/a	295.040817976	295.056901932	296.040169001	n/a	33M_FE_O.jpg	33M_FE_O.jpg	35M_FE_O.jpg
296.215938807	1.8231801979999889	face	1.34393811226	1.0	0.8	n/a	n/a	298.039119005	298.056517839	299.038693905	n/a	01F_AN_O.jpg	01F_AN_O.jpg	02F_AN_O.jpg
299.184172869	1.854928015999974	face	0.958097934723	1.0	0.8	n/a	n/a	301.039100885	301.055241823	302.034873009	n/a	MFZ_132.jpg	MFZ_132.jpg	MFZ_120.jpg
305.086678028	1.951325893999979	shape	1.06877398491	1.0	0.8	302.134732008	305.038097858	307.038003922	307.053771973	308.036219835	n/a	oval-horizontal.bmp	oval-vertical.bmp	oval-vertical.bmp
308.171018839	1.865581034999991	shape	0.684997081757	1.0	0.8	n/a	n/a	310.036599874	310.053367853	311.035953999	n/a	circle.bmp	oval-vertical.bmp	oval-vertical.bmp
311.169744015	1.8656039240000268	shape	0.686568021774	1.0	0.8	n/a	n/a	313.035347939	313.051379919	314.034821987	n/a	oval-horizontal.bmp	oval-horizontal.bmp	oval-vertical.bmp
314.168021917	1.865653992000034	shape	0.794298887253	1.0	0.8	n/a	n/a	316.033675909	316.051028967	317.033545971	n/a	oval-horizontal.bmp	oval-horizontal.bmp	circle.bmp
317.16781497	1.865607977000025	shape	0.678141117096	1.0	0.8	n/a	n/a	319.033422947	319.049391031	320.032913923	n/a	circle.bmp	circle.bmp	oval-vertical.bmp
320.161532879	1.8704330919999848	shape	0.691558122635	1.0	0.8	n/a	n/a	322.031965971	322.049093962	323.044927835	n/a	oval-horizontal.bmp	circle.bmp	circle.bmp
326.131557941	1.9001159670000327	face	1.38663101196	1.0	0.8	323.142742872	326.031502008	328.031673908	328.046728849	329.047433853	n/a	17F_FE_O.jpg	18F_FE_O.jpg	18F_FE_O.jpg
329.231498957	1.8152558799999952	face	0.76528096199	1.0	0.8	n/a	n/a	331.046754837	331.06340003	332.045325994	n/a	42M_AN_O.jpg	43M_AN_O.jpg	43M_AN_O.jpg
332.21775198	1.827570915000024	face	0.882062911987	1.0	0.8	n/a	n/a	334.045322895	334.06139493	335.044071913	n/a	31M_FE_O.jpg	31M_FE_O.jpg	32M_FE_O.jpg
335.196923018	1.8471548549999848	face	0.703500032425	1.0	0.8	n/a	n/a	337.044077873	337.061117887	338.043435812	n/a	FAZ_212.jpg	FFZ_236.jpg	FFZ_236.jpg
338.219674826	1.8238971229999947	face	0.741238117218	1.0	0.8	n/a	n/a	340.043571949	340.060205936	341.042928934	n/a	06F_FE_O.jpg	06F_FE_O.jpg	08F_FE_O.jpg
341.188733816	1.8533902169999688	face	0.757029056549	1.0	0.8	n/a	n/a	343.042124033	343.059134007	344.039119959	n/a	MAZ_128.jpg	MAZ_128.jpg	MAX_39.jpg
347.091779947	1.9497590069999544	shape	0.719736099243	1.0	0.8	344.141958952	347.041512966	349.041538954	349.057791948	350.040934801	n/a	circle.bmp	oval-vertical.bmp	oval-vertical.bmp
350.174507856	1.865767956000013	shape	0.618113040924	1.0	0.8	n/a	n/a	352.040275812	352.05712986	353.039580822	n/a	oval-horizontal.bmp	oval-horizontal.bmp	circle.bmp
353.173791885	1.8645100599999864	shape	0.736504077911	1.0	0.8	n/a	n/a	355.038301945	355.055473804	356.038582802	n/a	oval-horizontal.bmp	oval-vertical.bmp	oval-vertical.bmp
356.172467947	1.8661139010000056	shape	0.560685157776	1.0	0.8	n/a	n/a	358.038581848	358.054904938	359.037492037	n/a	oval-horizontal.bmp	circle.bmp	circle.bmp
359.172036886	1.8645229339999787	shape	0.677401065826	1.0	0.8	n/a	n/a	361.03655982	361.05365181	362.035969019	n/a	oval-horizontal.bmp	oval-horizontal.bmp	oval-vertical.bmp
362.170758009	1.865200995999999	shape	0.572323799133	1.0	0.8	n/a	n/a	364.035959005	364.052795887	365.032949924	n/a	circle.bmp	circle.bmp	oval-vertical.bmp
368.102255821	1.9323949819999484	face	1.03728508949	1.0	0.8	365.137451887	368.03525281	370.034650803	370.050542831	371.034370899	n/a	FFZ_18.jpg	FAZ_129.jpg	FAZ_129.jpg
371.219173908	1.814532041999996	face	0.701808929443	1.0	0.8	n/a	n/a	373.03370595	373.050642967	374.032279015	n/a	20M_FE_O.jpg	24M_FE_O.jpg	24M_FE_O.jpg
374.184269905	1.848485946999972	face	1.00445199013	1.0	0.8	n/a	n/a	376.032755852	376.04913187	377.032342911	n/a	FAZ_23.jpg	FAX_25.jpg	FAX_25.jpg
377.206282854	1.825579166000012	face	0.79337310791	1.0	0.8	n/a	n/a	379.03186202	379.048065901	380.047595978	n/a	33M_FE_O.jpg	33M_FE_O.jpg	35M_FE_O.jpg
380.231822014	1.81521987900004	face	0.792526006699	1.0	0.8	n/a	n/a	382.047041893	382.063937902	383.046618938	n/a	01F_AN_O.jpg	01F_AN_O.jpg	02F_AN_O.jpg
383.208884954	1.8375649460000432	face	0.707931041718	1.0	0.8	n/a	n/a	385.0464499	385.063483	386.043325901	394.443200827	MFZ_132.jpg	MFZ_132.jpg	MFZ_120.jpg
