onset	duration	trial_type	response_time	accuracy_binarized	tr_seconds	cueStartTime	cueEndTime	trialEndTime	fixStartTime	fixEndTime	runEndTime	stimLeft	stimTop	stimRight
11.116467952728271	1.9674749374389648	shape	1.03381109238	0.0	0.8	8.070544958114624	11.066739082336426	13.083942890167236	13.116373062133787	14.08339786529541	n/a	oval-horizontal.bmp	oval-horizontal.bmp	oval-vertical.bmp
14.16649293899536	1.9337670803070088	shape	0.933505058289	1.0	0.8	n/a	n/a	16.100260019302368	16.133260011672974	17.100110054016113	n/a	oval-horizontal.bmp	oval-vertical.bmp	oval-vertical.bmp
17.18317985534668	1.900622129440308	shape	1.0003631115	1.0	0.8	n/a	n/a	19.083801984786987	19.116405963897705	20.08345603942871	n/a	circle.bmp	circle.bmp	oval-vertical.bmp
20.16653203964233	1.9337718486785924	shape	0.866883039474	1.0	0.8	n/a	n/a	22.100303888320923	22.133071899414062	23.10013699531555	n/a	circle.bmp	oval-vertical.bmp	oval-vertical.bmp
23.183220863342285	1.900613069534301	shape	1.03363895416	1.0	0.8	n/a	n/a	25.083833932876587	25.11645603179932	26.083492040634155	n/a	oval-horizontal.bmp	circle.bmp	circle.bmp
26.166691064834595	1.9336237907409668	shape	0.733402013779	1.0	0.8	n/a	n/a	28.10031485557556	28.13310599327088	29.1002049446106	n/a	oval-horizontal.bmp	oval-horizontal.bmp	circle.bmp
32.16673803329468	1.935652017593384	face	1.03537607193	1.0	0.8	29.15146493911743	32.08368396759033	34.10239005088806	34.133583068847656	35.10320997238159	n/a	FAZ_23.jpg	FAZ_23.jpg	FAX_43.jpg
35.23398208618164	1.8683929443359373	face	1.19889903069	1.0	0.8	n/a	n/a	37.10237503051758	37.1338119506836	38.1034939289093	n/a	26M_FE_O.jpg	26M_FE_O.jpg	27M_FE_O.BMP
38.2172908782959	1.8684391975402832	face	0.832516908646	1.0	0.8	n/a	n/a	40.08573007583618	40.116941928863525	41.08664298057556	n/a	MFX_16.jpg	MFZ_50.jpg	MFZ_50.jpg
41.21738004684448	1.868340015411377	face	0.93240404129	1.0	0.8	n/a	n/a	43.08572006225586	43.11715006828308	44.08663606643677	n/a	09F_AN_O.jpg	09F_AN_O.jpg	10F_AN_O.jpg
44.21724605560303	1.8684918880462649	face	0.998893022537	1.0	0.8	n/a	n/a	46.08573794364929	46.11698389053345	47.08667993545532	n/a	38M_AN_O.BMP	39M_AN_O.jpg	39M_AN_O.jpg
47.20058608055115	1.9018449783325195	face	1.03251814842	1.0	0.8	n/a	n/a	49.10243105888367	49.13387107849121	50.10330104827881	n/a	FFZ_102.jpg	FFX_130.jpg	FFX_130.jpg
53.16717004776001	1.9363188743591309	shape	n/a	0.0	0.8	50.14874601364136	53.10285305976868	55.10348892211914	55.13389301300049	56.10336685180664	n/a	oval-horizontal.bmp	oval-vertical.bmp	oval-vertical.bmp
56.18386602401733	1.9025459289550848	shape	0.899505853653	1.0	0.8	n/a	n/a	58.08641195297241	58.1170539855957	59.086758852005005	n/a	circle.bmp	oval-vertical.bmp	oval-vertical.bmp
59.16723895072937	1.9358899593353271	shape	1.13292908669	1.0	0.8	n/a	n/a	61.1031289100647	61.13391900062561	62.10341501235962	n/a	oval-horizontal.bmp	oval-horizontal.bmp	oval-vertical.bmp
62.18390488624573	1.9025239944458008	shape	0.832994222641	1.0	0.8	n/a	n/a	64.08642888069153	64.11711406707764	65.08677887916565	n/a	oval-horizontal.bmp	oval-horizontal.bmp	circle.bmp
65.16728591918945	1.935797929763794	shape	0.86619591713	1.0	0.8	n/a	n/a	67.10308384895325	67.1338050365448	68.10345387458801	n/a	circle.bmp	circle.bmp	oval-vertical.bmp
68.18414187431335	1.9023849964141848	shape	0.899809122086	1.0	0.8	n/a	n/a	70.08652687072754	70.11714696884155	71.08683490753174	n/a	oval-horizontal.bmp	circle.bmp	circle.bmp
74.20078301429749	1.9019279479980469	face	1.13303089142	1.0	0.8	71.13521599769592	74.10294985771179	76.10271096229553	76.1338369846344	77.10362887382507	n/a	03F_FE_O.jpg	05F_FE_O.jpg	05F_FE_O.jpg
77.2174699306488	1.8686590194702148	face	0.898941993713	1.0	0.8	n/a	n/a	79.08612895011902	79.1172399520874	80.08685207366943	n/a	FAZ_32.jpg	FAZ_32.jpg	FAX_45.jpg
80.20083904266357	1.9018239974975584	face	1.23256015778	1.0	0.8	n/a	n/a	82.10266304016113	82.1341118812561	83.10362696647644	n/a	MAZ_128.jpg	MAZ_101.jpg	MAZ_101.jpg
83.23418593406677	1.8689069747924805	face	1.16579198837	1.0	0.8	n/a	n/a	85.10309290885925	85.13408899307251	86.10368299484253	n/a	11F_AN_O.jpg	11F_AN_O.jpg	12F_AN_O.jpg
86.23409104347229	1.86859393119812	face	0.832459926605	1.0	0.8	n/a	n/a	88.10268497467041	88.13393497467041	89.10364007949829	n/a	26M_FE_O.jpg	33M_FE_O.jpg	33M_FE_O.jpg
89.2174289226532	1.86899209022522	face	1.06581902504	1.0	0.8	n/a	n/a	91.08642101287842	91.11730194091795	92.0869550704956	n/a	MFZ_132.jpg	MFZ_132.jpg	MFZ_120.jpg
95.15079593658449	1.936308145523057	shape	1.03374290466	1.0	0.8	92.13438200950624	95.10300087928772	97.08710408210754	97.11741185188292	98.0869710445404	n/a	circle.bmp	oval-vertical.bmp	oval-vertical.bmp
98.16747999191284	1.9362809658050537	shape	0.666350126266	1.0	0.8	n/a	n/a	100.1037609577179	100.13401985168456	101.10381603240968	n/a	oval-horizontal.bmp	oval-horizontal.bmp	circle.bmp
101.20085287094116	1.9028191566467143	shape	0.732949972153	1.0	0.8	n/a	n/a	103.10367202758788	103.13403701782228	104.1037290096283	n/a	oval-horizontal.bmp	oval-vertical.bmp	oval-vertical.bmp
104.2010760307312	1.902680873870836	shape	0.866605997086	1.0	0.8	n/a	n/a	106.10375690460204	106.1341679096222	107.10386991500854	n/a	oval-horizontal.bmp	circle.bmp	circle.bmp
107.20116400718688	1.902587890625	shape	1.23281812668	1.0	0.8	n/a	n/a	109.10375189781188	109.1341769695282	110.103698015213	n/a	oval-horizontal.bmp	oval-horizontal.bmp	oval-vertical.bmp
110.18438696861269	1.902398109436021	shape	0.799510955811	1.0	0.8	n/a	n/a	112.0867850780487	112.11742901802064	113.08723402023315	n/a	circle.bmp	circle.bmp	oval-vertical.bmp
116.1844608783722	1.901887178420992	face	0.966176986694	1.0	0.8	113.1434450149536	116.1031939983368	118.0863480567932	118.11745405197144	119.08712601661682	n/a	FAZ_23.jpg	FAZ_23.jpg	FAX_43.jpg
119.21801400184631	1.8682410717010496	face	1.03225684166	1.0	0.8	n/a	n/a	121.08625507354736	121.11749792099	122.08711290359496	n/a	26M_FE_O.jpg	26M_FE_O.jpg	27M_FE_O.BMP
122.20111298561096	1.901870012283311	face	0.799002885818	1.0	0.8	n/a	n/a	124.10298299789427	124.13417291641235	125.10396194458008	n/a	MFZ_50.jpg	MFZ_50.jpg	MFX_16.jpg
125.25137591362	1.8349249362945697	face	1.03252100945	1.0	0.8	n/a	n/a	127.08630084991456	127.11771392822266	128.08716702461243	n/a	10F_AN_O.jpg	09F_AN_O.jpg	09F_AN_O.jpg
128.21779489517212	1.86852502822876	face	1.03220391273	1.0	0.8	n/a	n/a	130.08631992340088	130.11752796173096	131.08722686767578	n/a	38M_AN_O.BMP	39M_AN_O.jpg	39M_AN_O.jpg
131.20136499404907	1.9016180038452148	face	1.33235406876	1.0	0.8	n/a	n/a	133.1029829978943	133.13443207740784	134.10391402244568	n/a	FFZ_102.jpg	FFX_130.jpg	FFX_130.jpg
137.13454604148865	1.936004877090454	shape	1.30024194717	1.0	0.8	134.15301990509033	137.0865728855133	139.0705509185791	139.10093593597412	140.10389399528503	n/a	oval-horizontal.bmp	oval-horizontal.bmp	oval-vertical.bmp
140.18442702293396	1.902508020401001	shape	0.799669027328	0.0	0.8	n/a	n/a	142.08693504333496	142.1176209449768	143.08729195594788	n/a	oval-horizontal.bmp	oval-vertical.bmp	oval-vertical.bmp
143.1677598953247	1.9357991218566888	shape	1.83298707008	1.0	0.8	n/a	n/a	145.1035590171814	145.13449788093567	146.07078886032104	n/a	circle.bmp	circle.bmp	oval-vertical.bmp
146.16791486740112	1.936155080795288	shape	1.23290896416	1.0	0.8	n/a	n/a	148.1040699481964	148.1343388557434	149.10410499572754	n/a	circle.bmp	oval-vertical.bmp	oval-vertical.bmp
149.201327085495	1.9022798538208008	shape	1.23281788826	1.0	0.8	n/a	n/a	151.1036069393158	151.13435101509094	152.10412001609802	n/a	oval-horizontal.bmp	circle.bmp	circle.bmp
152.20133686065674	1.902321100234985	shape	0.999769926071	1.0	0.8	n/a	n/a	154.10365796089172	154.1343550682068	155.07076406478882	n/a	oval-horizontal.bmp	oval-horizontal.bmp	circle.bmp
158.18492603302002	1.901684045791626	face	1.33305096626	1.0	0.8	155.12093687057495	158.08669996261597	160.08661007881165	160.11774587631226	161.08739495277405	n/a	20M_FE_O.jpg	21M_FE_O.jpg	21M_FE_O.jpg
161.2347240447998	1.8684589862823489	face	0.899003982544	1.0	0.8	n/a	n/a	163.10318303108215	163.13461995124817	164.07073497772217	n/a	01F_AN_O.jpg	07F_AN_O.jpg	07F_AN_O.jpg
164.18477392196655	1.901816129684448	face	1.16580104828	1.0	0.8	n/a	n/a	166.086590051651	166.11776089668274	167.0874540805817	n/a	FFX_139.jpg	FFZ_102.jpg	FFZ_102.jpg
167.21813893318176	1.8683969974517824	face	1.06566596031	1.0	0.8	n/a	n/a	169.08653593063354	169.11776399612427	170.08748292922974	n/a	23M_AN_O.jpg	23M_AN_O.jpg	22M_AN_O.jpg
170.20168089866638	1.901594161987305	face	0.765685796738	1.0	0.8	n/a	n/a	172.1032750606537	172.1344530582428	173.07092690467834	n/a	MAZ_146.jpg	MAZ_146.jpg	MAX_233.jpg
173.20163989067078	1.901611089706421	face	1.3655629158	1.0	0.8	n/a	n/a	175.1032509803772	175.13448905944824	176.07086896896362	n/a	15F_FE_O.jpg	15F_FE_O.jpg	16F_FE_O.jpg
179.1349048614502	1.9357821941375728	shape	1.86684989929	1.0	0.8	176.12198305130005	179.08681893348694	181.07068705558777	181.10119795799253	182.0708520412445	n/a	oval-horizontal.bmp	oval-vertical.bmp	oval-vertical.bmp
182.1682040691376	1.935642957687321	shape	0.966135025024	1.0	0.8	n/a	n/a	184.10384702682487	184.13453006744385	185.0708348751068	n/a	circle.bmp	oval-vertical.bmp	oval-vertical.bmp
185.1680190563202	1.9359560012817667	shape	1.36615180969	1.0	0.8	n/a	n/a	187.103975057602	187.13457489013672	188.0709450244904	n/a	oval-horizontal.bmp	oval-horizontal.bmp	oval-vertical.bmp
188.1681859493256	1.936090946197481	shape	0.99952507019	1.0	0.8	n/a	n/a	190.10427689552307	190.13459396362305	191.0708930492401	n/a	oval-horizontal.bmp	oval-horizontal.bmp	circle.bmp
191.16824793815613	1.9355981349945068	shape	0.932999849319	1.0	0.8	n/a	n/a	193.10384607315063	193.1346139907837	194.07098293304443	n/a	circle.bmp	circle.bmp	oval-vertical.bmp
194.1682269573212	1.9356989860534384	shape	0.899412870407	1.0	0.8	n/a	n/a	196.10392594337463	196.1346139907837	197.0709180831909	n/a	oval-horizontal.bmp	circle.bmp	circle.bmp
200.1682710647583	1.9354319572449008	face	0.866276979446	1.0	0.8	197.12360906600952	200.08703207969663	202.1037030220032	202.13468289375305	203.070958852768	n/a	FFX_54.jpg	FFX_54.jpg	FAX_51.jpg
203.20159602165225	1.9018709659575848	face	0.899245977402	1.0	0.8	n/a	n/a	205.10346698760983	205.1346809864044	206.0711739063263	n/a	40M_FE_O.BMP	41M_FE_O.jpg	41M_FE_O.jpg
206.2183039188385	1.86888098716733	face	0.832202196121	1.0	0.8	n/a	n/a	208.08718490600583	208.11805391311648	209.0877079963684	n/a	29M_AN_O.jpg	29M_AN_O.jpg	28M_AN_O.jpg
209.20170307159424	1.9017899036407184	face	0.799083948135	1.0	0.8	n/a	n/a	211.10349297523496	211.13471698760983	212.0711960792541	n/a	FFZ_18.jpg	FFZ_29.jpg	FFZ_29.jpg
212.21847701072693	1.868712902069064	face	1.13257598877	1.0	0.8	n/a	n/a	214.087189912796	214.1181869506836	215.087781906128	n/a	19F_AN_O.jpg	19F_AN_O.jpg	09F_AN_O.jpg
215.2016708850861	1.901894092559786	face	1.09913802147	1.0	0.8	n/a	n/a	217.10356497764587	217.13475584983823	218.07110595703125	n/a	MFZ_132.jpg	MFZ_7.jpg	MFZ_7.jpg
221.1349120140076	1.935962915420504	shape	1.2005879879	1.0	0.8	218.1242859363556	221.0870790481568	223.0708749294281	223.10145092010487	224.0711419582367	n/a	circle.bmp	oval-vertical.bmp	oval-vertical.bmp
224.16846203804016	1.9360008239746376	shape	1.13299107552	1.0	0.8	n/a	n/a	226.1044628620148	226.1348350048065	227.0710978507996	n/a	oval-horizontal.bmp	oval-horizontal.bmp	circle.bmp
227.1682820320129	1.9028680324555007	shape	1.43323588371	1.0	0.8	n/a	n/a	229.0711500644684	229.10169386863708	230.07125306129456	n/a	oval-horizontal.bmp	oval-vertical.bmp	oval-vertical.bmp
230.16842889785767	1.936057090759249	shape	1.06617498398	1.0	0.8	n/a	n/a	232.1044859886169	232.13486790657043	233.0711569786072	n/a	oval-horizontal.bmp	circle.bmp	circle.bmp
233.1683299541473	1.9025321006775189	shape	0.966451883316	1.0	0.8	n/a	n/a	235.07086205482483	235.10153698921204	236.07118391990664	n/a	oval-horizontal.bmp	oval-horizontal.bmp	oval-vertical.bmp
236.16848707199097	1.9356369972229004	shape	0.899500131607	1.0	0.8	n/a	n/a	238.10412406921387	238.13489699363708	239.07136392593384	n/a	circle.bmp	circle.bmp	oval-vertical.bmp
242.20209288597107	1.902250051498413	face	1.1665790081	1.0	0.8	239.13476395606995	242.1039910316468	244.10434293746948	244.13501596450809	245.0712358951569	n/a	20M_FE_O.jpg	21M_FE_O.jpg	21M_FE_O.jpg
245.218554019928	1.868486881256075	face	1.03225708008	1.0	0.8	n/a	n/a	247.08704090118408	247.11844301223755	248.08784985542297	n/a	07F_AN_O.jpg	07F_AN_O.jpg	01F_AN_O.jpg
248.2017800807953	1.9019589424133585	face	0.999026060104	1.0	0.8	n/a	n/a	250.10373902320865	250.13510608673096	251.0712778568268	n/a	FFZ_102.jpg	FFZ_102.jpg	FFX_139.jpg
251.21895003318787	1.868122816085816	face	1.16560602188	1.0	0.8	n/a	n/a	253.08707284927368	253.11832284927368	254.0879509449005	n/a	22M_AN_O.jpg	23M_AN_O.jpg	23M_AN_O.jpg
254.2023160457611	1.9014530181884768	face	0.899021863937	1.0	0.8	n/a	n/a	256.1037690639496	256.1352379322052	257.07128286361694	n/a	MAX_233.jpg	MAZ_146.jpg	MAZ_146.jpg
257.21883893013	1.8683290481567385	face	n/a	0.0	0.8	n/a	n/a	259.08716797828674	259.11832785606384	260.08800196647644	n/a	15F_FE_O.jpg	15F_FE_O.jpg	16F_FE_O.jpg
263.1692600250244	1.9018850326538088	shape	0.967334032059	1.0	0.8	260.14321208000183	263.1041328907013	265.0711450576782	265.10172605514526	266.0714809894562	n/a	oval-horizontal.bmp	oval-horizontal.bmp	oval-vertical.bmp
266.16864800453186	1.902406930923462	shape	0.833211898804	0.0	0.8	n/a	n/a	268.0710549354553	268.1017599105835	269.07140493392944	n/a	oval-horizontal.bmp	oval-vertical.bmp	oval-vertical.bmp
269.1686968803406	1.902292013168335	shape	0.933073997498	1.0	0.8	n/a	n/a	271.0709888935089	271.10176491737366	272.0713808536529	n/a	circle.bmp	circle.bmp	oval-vertical.bmp
272.16868591308594	1.9023449420928955	shape	0.966152191162	1.0	0.8	n/a	n/a	274.07103085517883	274.1017680168152	275.07142186164856	n/a	circle.bmp	oval-vertical.bmp	oval-vertical.bmp
275.1687479019165	1.9023411273956297	shape	0.966485023499	1.0	0.8	n/a	n/a	277.07108902931213	277.10178804397583	278.07143688201904	n/a	oval-horizontal.bmp	circle.bmp	circle.bmp
278.1687569618225	1.9023900032043457	shape	1.09975290298	1.0	0.8	n/a	n/a	280.07114696502686	280.1017849445343	281.07145285606384	n/a	oval-horizontal.bmp	oval-horizontal.bmp	circle.bmp
284.1519958972931	1.935347080230713	face	0.9996778965	1.0	0.8	281.12822103500366	284.0874719619751	286.0873429775238	286.1187028884888	287.08832001686096	n/a	FFZ_18.jpg	FAZ_129.jpg	FAZ_129.jpg
287.2355308532715	1.868423223495484	face	1.09903001785	1.0	0.8	n/a	n/a	289.10395407676697	289.13520097732544	290.07154989242554	n/a	20M_FE_O.jpg	24M_FE_O.jpg	24M_FE_O.jpg
290.1858298778534	1.9015560150146484	face	0.865732908249	1.0	0.8	n/a	n/a	292.08738589286804	292.118674993515	293.0882570743561	n/a	FAZ_23.jpg	FAX_25.jpg	FAX_25.jpg
293.2355308532715	1.8685150146484373	face	1.1326880455	1.0	0.8	n/a	n/a	295.1040458679199	295.1352400779724	296.07151889801025	n/a	33M_FE_O.jpg	33M_FE_O.jpg	35M_FE_O.jpg
296.21886706352234	1.868489980697689	face	1.10238409042	1.0	0.8	n/a	n/a	298.08735704422	298.11862206459045	299.0882859230041	n/a	01F_AN_O.jpg	01F_AN_O.jpg	02F_AN_O.jpg
299.219083070755	1.8683648109436035	face	1.06597900391	1.0	0.8	n/a	n/a	301.0874478816986	301.11871790885925	302.0884189605713	n/a	MFZ_132.jpg	MFZ_132.jpg	MFZ_120.jpg
305.1354229450226	1.9361670017242432	shape	1.20031404495	1.0	0.8	302.1459810733795	305.071074962616	307.0715899467468	307.10196590423584	308.0716140270233	n/a	oval-horizontal.bmp	oval-vertical.bmp	oval-vertical.bmp
308.1687750816345	1.902486801147461	shape	1.03280591965	1.0	0.8	n/a	n/a	310.071261882782	310.1019899845124	311.07172203063965	n/a	circle.bmp	oval-vertical.bmp	oval-vertical.bmp
311.16879892349243	1.9026939868927	shape	1.09985017776	1.0	0.8	n/a	n/a	313.07149291038513	313.10202288627625	314.0716059207916	n/a	oval-horizontal.bmp	oval-horizontal.bmp	oval-vertical.bmp
314.1688189506531	1.9025299549102213	shape	0.899675130844	1.0	0.8	n/a	n/a	316.0713489055633	316.1020338535309	317.07176303863525	n/a	oval-horizontal.bmp	oval-horizontal.bmp	circle.bmp
317.1688470840454	1.9025638103485107	shape	0.799504041672	1.0	0.8	n/a	n/a	319.0714108943939	319.1020679473877	320.07167387008667	n/a	circle.bmp	circle.bmp	oval-vertical.bmp
320.16888308525085	1.902447938919068	shape	1.03293204308	1.0	0.8	n/a	n/a	322.0713310241699	322.1020710468292	323.07176899909973	n/a	oval-horizontal.bmp	circle.bmp	circle.bmp
326.1858530044556	1.90179800987238	face	1.26627993584	1.0	0.8	323.1325740814209	326.0877459049225	328.087651014328	328.1187560558319	329.0884530544281	n/a	17F_FE_O.jpg	18F_FE_O.jpg	18F_FE_O.jpg
329.2356069087982	1.8357479572296145	face	0.999408960342	1.0	0.8	n/a	n/a	331.07135486602783	331.1021919250488	332.0717980861664	n/a	42M_AN_O.jpg	43M_AN_O.jpg	43M_AN_O.jpg
332.2189600467682	1.8686089515686035	face	1.06601881981	1.0	0.8	n/a	n/a	334.0875689983368	334.1187920570373	335.0884659290314	n/a	31M_FE_O.jpg	31M_FE_O.jpg	32M_FE_O.jpg
335.2026090621948	1.8688218593597408	face	0.965699911118	1.0	0.8	n/a	n/a	337.07143092155457	337.1021909713745	338.071809053421	n/a	FAZ_212.jpg	FFZ_236.jpg	FFZ_236.jpg
338.2190718650818	1.8685550689697263	face	0.832580089569	1.0	0.8	n/a	n/a	340.0876269340515	340.1188259124756	341.0886549949646	n/a	06F_FE_O.jpg	06F_FE_O.jpg	08F_FE_O.jpg
341.2190079689026	1.869055986404419	face	1.03265690804	1.0	0.8	n/a	n/a	343.088063955307	343.1188910007477	344.0885570049286	n/a	MAZ_128.jpg	MAZ_128.jpg	MAX_39.jpg
347.13567996025085	1.936582088470459	shape	1.06692194939	1.0	0.8	344.1479289531708	347.0713529586792	349.0722620487213	349.1022679805756	350.07181906700134	n/a	circle.bmp	oval-vertical.bmp	oval-vertical.bmp
350.16903591156006	1.9025321006774905	shape	0.899897098541	1.0	0.8	n/a	n/a	352.07156801223755	352.1022210121155	353.07211089134216	n/a	oval-horizontal.bmp	oval-horizontal.bmp	circle.bmp
353.185898065567	1.9027879238128664	shape	1.1998770237	1.0	0.8	n/a	n/a	355.0886859893799	355.11897802352905	356.08856105804443	n/a	oval-horizontal.bmp	oval-vertical.bmp	oval-vertical.bmp
356.1857440471649	1.9025249481201167	shape	0.933098077774	1.0	0.8	n/a	n/a	358.08826899528503	358.11910700798035	359.0886158943176	n/a	oval-horizontal.bmp	circle.bmp	circle.bmp
359.18577790260315	1.902965068817139	shape	1.69990801811	1.0	0.8	n/a	n/a	361.0887429714203	361.1191539764404	362.0886008739472	n/a	oval-horizontal.bmp	oval-horizontal.bmp	oval-vertical.bmp
362.1857810020447	1.902464866638184	shape	0.766120910645	1.0	0.8	n/a	n/a	364.08824586868286	364.1191549301148	365.08878898620605	n/a	circle.bmp	circle.bmp	oval-vertical.bmp
368.1865479946137	1.901292085647469	face	0.766174793243	1.0	0.8	365.1568510532379	368.0880110263825	370.0878400802612	370.1191489696503	371.0886869430542	n/a	FFZ_18.jpg	FAZ_129.jpg	FAZ_129.jpg
371.2361619472504	1.834911108016854	face	0.999008893967	1.0	0.8	n/a	n/a	373.0710730552673	373.1025719642639	374.072026014328	n/a	20M_FE_O.jpg	24M_FE_O.jpg	24M_FE_O.jpg
374.185870885849	1.90195107460022	face	0.932379961014	1.0	0.8	n/a	n/a	376.0878219604492	376.1190509796143	377.08882904052734	n/a	FAZ_23.jpg	FAX_25.jpg	FAX_25.jpg
377.2359879016876	1.8356900215148928	face	1.06594800949	1.0	0.8	n/a	n/a	379.0716779232025	379.10240507125854	380.07212495803833	n/a	33M_FE_O.jpg	33M_FE_O.jpg	35M_FE_O.jpg
380.2193758487701	1.868480205535889	face	0.998898983002	1.0	0.8	n/a	n/a	382.087856054306	382.1190710067749	383.08878898620605	n/a	01F_AN_O.jpg	01F_AN_O.jpg	02F_AN_O.jpg
383.2195439338684	1.8683481216430664	face	0.965641021729	1.0	0.8	n/a	n/a	385.0878920555115	385.1193468570709	386.0887770652771	394.4721720218658	MFZ_132.jpg	MFZ_132.jpg	MFZ_120.jpg
