onset	duration	trial_type	response_time	accuracy_binarized	tr_seconds	cueStartTime	cueEndTime	trialEndTime	fixStartTime	fixEndTime	runEndTime	stimLeft	stimTop	stimRight
11.0575530529	1.970649957700001	shape	1.29823994637	1.0	0.8	8.02346801758	11.0114438534	13.0282030106	13.0328249931	14.0267319679	n/a	oval-horizontal.bmp	oval-horizontal.bmp	oval-vertical.bmp
14.1405768394	1.8866300583000013	shape	1.21522307396	1.0	0.8	n/a	n/a	16.0272068977	16.0311820507	17.0263929367	n/a	oval-horizontal.bmp	oval-vertical.bmp	oval-vertical.bmp
17.131747961	1.8947451115000007	shape	0.85413980484	1.0	0.8	n/a	n/a	19.0264930725	19.030452013	20.0257718563	n/a	circle.bmp	circle.bmp	oval-vertical.bmp
20.1317110062	1.8949210643	shape	1.23744297028	1.0	0.8	n/a	n/a	22.0266320705	22.0302078724	23.0259568691	n/a	circle.bmp	oval-vertical.bmp	oval-vertical.bmp
23.134898901	1.891061067599999	shape	0.885628938675	1.0	0.8	n/a	n/a	25.0259599686	25.0298779011	26.0253510475	n/a	oval-horizontal.bmp	circle.bmp	circle.bmp
26.132819891	1.8933110237000008	shape	1.00391387939	1.0	0.8	n/a	n/a	28.0261309147	28.0300998688	29.0251078606	n/a	oval-horizontal.bmp	oval-horizontal.bmp	circle.bmp
32.0865979195	1.9390051365000005	face	1.16263890266	1.0	0.8	29.100509882	32.0248360634	34.025603056	34.0307569504	35.0243489742	n/a	FAZ_23.jpg	FAZ_23.jpg	FAX_43.jpg
35.1643459797	1.8609089850999965	face	1.38314509392	1.0	0.8	n/a	n/a	37.0252549648	37.0289168358	38.0241968632	n/a	26M_FE_O.jpg	26M_FE_O.jpg	27M_FE_O.BMP
38.1547589302	1.8696811198999936	face	0.711354017258	1.0	0.8	n/a	n/a	40.0244400501	40.0284910202	41.0236439705	n/a	MFX_16.jpg	MFZ_50.jpg	MFZ_50.jpg
41.1734979153	1.8504331112000043	face	0.995394945145	1.0	0.8	n/a	n/a	43.0239310265	43.0279388428	44.0236279964	n/a	09F_AN_O.jpg	09F_AN_O.jpg	10F_AN_O.jpg
44.1612699032	1.8625969886999985	face	0.970698833466	1.0	0.8	n/a	n/a	46.0238668919	46.0279579163	47.023047924	n/a	38M_AN_O.BMP	39M_AN_O.jpg	39M_AN_O.jpg
47.147179842	1.8764710426000024	face	1.20367717743	1.0	0.8	n/a	n/a	49.0236508846	49.0273399353	50.0226678848	n/a	FFZ_102.jpg	FFX_130.jpg	FFX_130.jpg
53.059871912	1.962744951300003	shape	1.20388007164	1.0	0.8	50.0998370647	53.0228819847	55.0226168633	55.0271649361	56.0216598511	n/a	oval-horizontal.bmp	oval-vertical.bmp	oval-vertical.bmp
56.1235029697	1.898974895500004	shape	0.953850984573	1.0	0.8	n/a	n/a	58.0224778652	58.0261750221	59.0216698647	n/a	circle.bmp	oval-vertical.bmp	oval-vertical.bmp
59.1276099682	1.8943290710000007	shape	0.953592061996	1.0	0.8	n/a	n/a	61.0219390392	61.0256800652	62.021296978	n/a	oval-horizontal.bmp	oval-horizontal.bmp	oval-vertical.bmp
62.1262428761	1.895534992200005	shape	0.720612049103	1.0	0.8	n/a	n/a	64.0217778683	64.0257270336	65.0209798813	n/a	oval-horizontal.bmp	oval-horizontal.bmp	circle.bmp
65.1269500256	1.8943598270000024	shape	0.701411008835	1.0	0.8	n/a	n/a	67.0213098526	67.0248959064	68.0207018852	n/a	circle.bmp	circle.bmp	oval-vertical.bmp
68.1257698536	1.895052194599998	shape	0.886517047882	1.0	0.8	n/a	n/a	70.0208220482	70.0242898464	71.0204069614	n/a	oval-horizontal.bmp	circle.bmp	circle.bmp
74.1120178699	1.9090120792999985	face	1.15754294395	1.0	0.8	71.0965600014	74.0199449062	76.0210299492	76.0259399414	77.0201079845	n/a	03F_FE_O.jpg	05F_FE_O.jpg	05F_FE_O.jpg
77.1476860046	1.8724620343	face	1.02444887161	1.0	0.8	n/a	n/a	79.0201480389	79.0237309933	80.0194358826	n/a	FAZ_32.jpg	FAZ_32.jpg	FAX_45.jpg
80.1481180191	1.8717730045	face	0.973853826523	1.0	0.8	n/a	n/a	82.0198910236	82.0235059261	83.0194199085	n/a	MAZ_128.jpg	MAZ_101.jpg	MAZ_101.jpg
83.1617689133	1.857784032800012	face	1.14061903954	1.0	0.8	n/a	n/a	85.0195529461	85.0232419968	86.0188648701	n/a	11F_AN_O.jpg	11F_AN_O.jpg	12F_AN_O.jpg
86.1659200191	1.8538689613999964	face	1.02505898476	1.0	0.8	n/a	n/a	88.0197889805	88.0239360332	89.0183310509	n/a	26M_FE_O.jpg	33M_FE_O.jpg	33M_FE_O.jpg
89.1450920105	1.8739988804000087	face	0.973593950272	1.0	0.8	n/a	n/a	91.0190908909	91.0226960182	92.0177869797	n/a	MFZ_132.jpg	MFZ_132.jpg	MFZ_120.jpg
95.0552458763	1.963385105099988	shape	1.15628504753	1.0	0.8	92.0970928669	95.0178389549	97.0186309814	97.0231559277	98.0173718929	n/a	circle.bmp	oval-vertical.bmp	oval-vertical.bmp
98.1255018711	1.8913910388999968	shape	0.752721071243	1.0	0.8	n/a	n/a	100.01689291	100.020644903	101.016644001	n/a	oval-horizontal.bmp	oval-horizontal.bmp	circle.bmp
101.125138044	1.892867804000005	shape	0.937633991241	1.0	0.8	n/a	n/a	103.018005848	103.021679878	104.016655922	n/a	oval-horizontal.bmp	oval-vertical.bmp	oval-vertical.bmp
104.123939037	1.8930258750000064	shape	0.854894161224	1.0	0.8	n/a	n/a	106.016964912	106.020622969	107.01630187	n/a	oval-horizontal.bmp	circle.bmp	circle.bmp
107.12156105	1.8951787950000067	shape	1.40394806862	1.0	0.8	n/a	n/a	109.016739845	109.020441055	110.015985012	n/a	oval-horizontal.bmp	oval-horizontal.bmp	oval-vertical.bmp
110.124029875	1.8921251299999968	shape	1.00386810303	1.0	0.8	n/a	n/a	112.016155005	112.02013588	113.016324043	n/a	circle.bmp	circle.bmp	oval-vertical.bmp
116.073439837	1.9431090350000064	face	0.770788908005	1.0	0.8	113.097285032	116.015393972	118.016548872	118.021088839	119.014782906	n/a	FAZ_23.jpg	FAZ_23.jpg	FAX_43.jpg
119.151367903	1.8642189500000088	face	0.887105941772	1.0	0.8	n/a	n/a	121.015586853	121.019203901	122.014559984	n/a	26M_FE_O.jpg	26M_FE_O.jpg	27M_FE_O.BMP
122.142574072	1.889288902000004	face	1.23384809494	1.0	0.8	n/a	n/a	124.031862974	124.035382032	125.014858961	n/a	MFZ_50.jpg	MFZ_50.jpg	MFX_16.jpg
125.166969061	1.848423957999998	face	0.836513996124	1.0	0.8	n/a	n/a	127.015393019	127.019073963	128.014478922	n/a	10F_AN_O.jpg	09F_AN_O.jpg	09F_AN_O.jpg
128.154067993	1.8766138559999768	face	1.20272397995	1.0	0.8	n/a	n/a	130.030681849	130.034322977	131.030030966	n/a	38M_AN_O.BMP	39M_AN_O.jpg	39M_AN_O.jpg
131.155222893	1.8753440380000088	face	0.970144987106	1.0	0.8	n/a	n/a	133.030566931	133.034064054	134.029878855	n/a	FFZ_102.jpg	FFX_130.jpg	FFX_130.jpg
137.066398859	1.9637181759999864	shape	0.769827842712	1.0	0.8	134.115947962	137.029835939	139.030117035	139.034642935	140.029284	n/a	oval-horizontal.bmp	oval-horizontal.bmp	oval-vertical.bmp
140.140750885	1.8890609740000173	shape	1.07068514824	1.0	0.8	n/a	n/a	142.029811859	142.033432007	143.02957201	n/a	oval-horizontal.bmp	oval-vertical.bmp	oval-vertical.bmp
143.142833948	1.88628005999999	shape	0.703038930893	1.0	0.8	n/a	n/a	145.029114008	145.032778978	146.028815985	n/a	circle.bmp	circle.bmp	oval-vertical.bmp
146.14020896	1.888616084999996	shape	1.2367169857	1.0	0.8	n/a	n/a	148.028825045	148.033140898	149.028543949	n/a	circle.bmp	oval-vertical.bmp	oval-vertical.bmp
149.140666962	1.888573885	shape	0.869766950607	1.0	0.8	n/a	n/a	151.029240847	151.03284502	152.02809906	n/a	oval-horizontal.bmp	circle.bmp	circle.bmp
152.137578964	1.8906540870000013	shape	1.03176999092	1.0	0.8	n/a	n/a	154.028233051	154.031661034	155.02746892	n/a	oval-horizontal.bmp	oval-horizontal.bmp	circle.bmp
158.108078957	1.9197320929999933	face	1.35219192505	1.0	0.8	155.116488934	158.027353048	160.02781105	160.032976866	161.026926041	n/a	20M_FE_O.jpg	21M_FE_O.jpg	21M_FE_O.jpg
161.184082031	1.8436958789999949	face	1.10014295578	1.0	0.8	n/a	n/a	163.02777791	163.031440973	164.026330948	n/a	01F_AN_O.jpg	07F_AN_O.jpg	07F_AN_O.jpg
164.156811953	1.8701701160000253	face	1.15270495415	1.0	0.8	n/a	n/a	166.026982069	166.030436039	167.026140928	n/a	FFX_139.jpg	FFZ_102.jpg	FFZ_102.jpg
167.178171873	1.84861111699999	face	1.32893395424	0.0	0.8	n/a	n/a	169.02678299	169.030468941	170.02618885	n/a	23M_AN_O.jpg	23M_AN_O.jpg	22M_AN_O.jpg
170.156439066	1.8700327870000133	face	1.11541199684	1.0	0.8	n/a	n/a	172.026471853	172.030537844	173.025534868	n/a	MAZ_146.jpg	MAZ_146.jpg	MAX_233.jpg
173.174489975	1.8515639299999973	face	1.13673996925	1.0	0.8	n/a	n/a	175.026053905	175.02967	176.025768995	n/a	15F_FE_O.jpg	15F_FE_O.jpg	16F_FE_O.jpg
179.061415911	1.9643180369999984	shape	1.16860508919	1.0	0.8	176.11354804	179.023833036	181.025733948	181.030258894	182.024488926	n/a	oval-horizontal.bmp	oval-vertical.bmp	oval-vertical.bmp
182.139688969	1.884638071000012	shape	0.920217990875	1.0	0.8	n/a	n/a	184.02432704	184.028182983	185.024024963	n/a	circle.bmp	oval-vertical.bmp	oval-vertical.bmp
185.13814187	1.887207985000004	shape	1.2140390873	1.0	0.8	n/a	n/a	187.025349855	187.028991938	188.023869038	n/a	oval-horizontal.bmp	oval-horizontal.bmp	oval-vertical.bmp
188.139884949	1.8843650820000164	shape	0.869440078735	1.0	0.8	n/a	n/a	190.024250031	190.02786088	191.023458004	n/a	oval-horizontal.bmp	oval-horizontal.bmp	circle.bmp
191.137469053	1.886569977000022	shape	0.998514175415	1.0	0.8	n/a	n/a	193.02403903	193.02786088	194.023270845	n/a	circle.bmp	circle.bmp	oval-vertical.bmp
194.140023947	1.883701086000002	shape	1.05514597893	1.0	0.8	n/a	n/a	196.023725033	196.028022051	197.022953033	n/a	oval-horizontal.bmp	circle.bmp	circle.bmp
200.080817938	1.942402124000012	face	0.88720703125	1.0	0.8	197.113224983	200.022875071	202.023220062	202.028110981	203.021920919	n/a	FFX_54.jpg	FFX_54.jpg	FAX_51.jpg
203.167944908	1.85528898299998	face	1.02886295319	1.0	0.8	n/a	n/a	205.023233891	205.027292967	206.021720886	n/a	40M_FE_O.BMP	41M_FE_O.jpg	41M_FE_O.jpg
206.172906876	1.8486740589999893	face	0.953192949295	1.0	0.8	n/a	n/a	208.021580935	208.02521801	209.021596909	n/a	29M_AN_O.jpg	29M_AN_O.jpg	28M_AN_O.jpg
209.153952837	1.8681571479999943	face	1.02873492241	1.0	0.8	n/a	n/a	211.022109985	211.02609086	212.021646023	n/a	FFZ_18.jpg	FFZ_29.jpg	FFZ_29.jpg
212.181130886	1.840442180999986	face	0.994520187378	1.0	0.8	n/a	n/a	214.021573067	214.025366068	215.021438837	n/a	19F_AN_O.jpg	19F_AN_O.jpg	09F_AN_O.jpg
215.158525944	1.862819910000013	face	1.0521709919	1.0	0.8	n/a	n/a	217.021345854	217.025023937	218.020588875	n/a	MFZ_132.jpg	MFZ_7.jpg	MFZ_7.jpg
221.057194948	1.9639379980000056	shape	0.969923973083	1.0	0.8	218.114285946	221.020310879	223.021132946	223.025733948	224.01967001	n/a	circle.bmp	oval-vertical.bmp	oval-vertical.bmp
224.139688969	1.880024910000003	shape	0.870177030563	1.0	0.8	n/a	n/a	226.019713879	226.023365021	227.019675016	n/a	oval-horizontal.bmp	oval-horizontal.bmp	circle.bmp
227.141202927	1.8785989280000024	shape	0.753212213516	1.0	0.8	n/a	n/a	229.019801855	229.023524046	230.01918292	n/a	oval-horizontal.bmp	oval-vertical.bmp	oval-vertical.bmp
230.140157938	1.8795299530000025	shape	0.704074859619	1.0	0.8	n/a	n/a	232.019687891	232.023355007	233.018996	n/a	oval-horizontal.bmp	circle.bmp	circle.bmp
233.13833499	1.891974925999989	shape	0.97125005722	1.0	0.8	n/a	n/a	235.030309916	235.033882856	236.030123949	n/a	oval-horizontal.bmp	oval-horizontal.bmp	oval-vertical.bmp
236.149124861	1.88115406	shape	1.15406298637	1.0	0.8	n/a	n/a	238.030278921	238.03387785	239.029931068	n/a	circle.bmp	circle.bmp	oval-vertical.bmp
242.09395504	1.924270868000008	face	1.24107599258	1.0	0.8	239.125179052	242.017860889	244.018225908	244.022960901	245.01778388	n/a	20M_FE_O.jpg	21M_FE_O.jpg	21M_FE_O.jpg
245.178134918	1.840430974999976	face	1.22575378418	1.0	0.8	n/a	n/a	247.018565893	247.022105932	248.017703056	n/a	07F_AN_O.jpg	07F_AN_O.jpg	01F_AN_O.jpg
248.151890993	1.8659000400000136	face	0.908587932587	1.0	0.8	n/a	n/a	250.017791033	250.021420956	251.016818047	n/a	FFZ_102.jpg	FFZ_102.jpg	FFX_139.jpg
251.175511837	1.8418190480000192	face	1.37123703957	1.0	0.8	n/a	n/a	253.017330885	253.020941973	254.016782999	n/a	22M_AN_O.jpg	23M_AN_O.jpg	23M_AN_O.jpg
254.151900053	1.864924908000006	face	0.940667152405	1.0	0.8	n/a	n/a	256.016824961	256.020837069	257.016196966	n/a	MAX_233.jpg	MAZ_146.jpg	MAZ_146.jpg
257.171607971	1.8454840189999688	face	0.970779895782	1.0	0.8	n/a	n/a	259.01709199	259.020912886	260.015805006	n/a	15F_FE_O.jpg	15F_FE_O.jpg	16F_FE_O.jpg
263.053786039	1.962157010999988	shape	0.788880109787	1.0	0.8	260.112179041	263.015869856	265.01594305	265.020498037	266.015539885	n/a	oval-horizontal.bmp	oval-horizontal.bmp	oval-vertical.bmp
266.13566184	1.8962011339999665	shape	n/a	0.0	0.8	n/a	n/a	268.031862974	268.037611008	269.014840841	n/a	oval-horizontal.bmp	oval-vertical.bmp	oval-vertical.bmp
269.129468918	1.9017019270000333	shape	0.98855805397	1.0	0.8	n/a	n/a	271.031170845	271.034657955	272.030719995	n/a	circle.bmp	circle.bmp	oval-vertical.bmp
272.142771006	1.8886449330000232	shape	0.971249103546	1.0	0.8	n/a	n/a	274.031415939	274.034940958	275.030315876	n/a	circle.bmp	oval-vertical.bmp	oval-vertical.bmp
275.142153978	1.8881390099999749	shape	0.887273073196	1.0	0.8	n/a	n/a	277.030292988	277.033864975	278.030608892	n/a	oval-horizontal.bmp	circle.bmp	circle.bmp
278.143445015	1.8866159919999743	shape	0.95460319519	1.0	0.8	n/a	n/a	280.030061007	280.033587933	281.029510021	n/a	oval-horizontal.bmp	oval-horizontal.bmp	circle.bmp
284.090342045	1.9392378329999929	face	0.837765216827	1.0	0.8	281.121450901	284.030040979	286.029579878	286.033845901	287.029080868	n/a	FFZ_18.jpg	FAZ_129.jpg	FAZ_129.jpg
287.182461023	1.846704007000028	face	1.20445799828	1.0	0.8	n/a	n/a	289.02916503	289.032702923	290.028604984	n/a	20M_FE_O.jpg	24M_FE_O.jpg	24M_FE_O.jpg
290.16071105	1.8684279920000224	face	1.13684201241	1.0	0.8	n/a	n/a	292.029139042	292.033313036	293.028516054	n/a	FAZ_23.jpg	FAX_25.jpg	FAX_25.jpg
293.185710907	1.8430409430000048	face	0.887255907059	1.0	0.8	n/a	n/a	295.02875185	295.032283068	296.027803898	n/a	33M_FE_O.jpg	33M_FE_O.jpg	35M_FE_O.jpg
296.189810038	1.8393378249999728	face	1.03404593468	1.0	0.8	n/a	n/a	298.029147863	298.032721043	299.028326988	n/a	01F_AN_O.jpg	01F_AN_O.jpg	02F_AN_O.jpg
299.163318872	1.8639750490000324	face	1.20300412178	1.0	0.8	n/a	n/a	301.027293921	301.030796051	302.027140856	n/a	MFZ_132.jpg	MFZ_132.jpg	MFZ_120.jpg
305.063519001	1.9635870460000435	shape	1.2339990139	1.0	0.8	302.122140884	305.026702881	307.027106047	307.031728983	308.026618958	n/a	oval-horizontal.bmp	oval-vertical.bmp	oval-vertical.bmp
308.141607046	1.8850209710000168	shape	0.719329118729	1.0	0.8	n/a	n/a	310.026628017	310.030122995	311.026036978	n/a	circle.bmp	oval-vertical.bmp	oval-vertical.bmp
311.144219875	1.882225037000012	shape	1.23681306839	1.0	0.8	n/a	n/a	313.026444912	313.029926062	314.025855064	n/a	oval-horizontal.bmp	oval-horizontal.bmp	oval-vertical.bmp
314.143969059	1.881796836999968	shape	0.799754142761	1.0	0.8	n/a	n/a	316.025765896	316.029677868	317.025706053	n/a	oval-horizontal.bmp	oval-horizontal.bmp	circle.bmp
317.143816948	1.882322073000012	shape	0.984248876572	1.0	0.8	n/a	n/a	319.026139021	319.029973984	320.025076866	n/a	circle.bmp	circle.bmp	oval-vertical.bmp
320.14449501	1.881598950000012	shape	0.854130983353	1.0	0.8	n/a	n/a	322.02609396	322.029597998	323.025109053	n/a	oval-horizontal.bmp	circle.bmp	circle.bmp
326.109133005	1.9157328610000377	face	1.26968312263	1.0	0.8	323.119556904	326.024432898	328.024865866	328.02967906	329.024075985	n/a	17F_FE_O.jpg	18F_FE_O.jpg	18F_FE_O.jpg
329.184767008	1.8399288649999903	face	0.916525840759	1.0	0.8	n/a	n/a	331.024695873	331.028236866	332.023788929	n/a	42M_AN_O.jpg	43M_AN_O.jpg	43M_AN_O.jpg
332.180824041	1.843850851000013	face	0.753582954407	1.0	0.8	n/a	n/a	334.024674892	334.028347969	335.023695946	n/a	31M_FE_O.jpg	31M_FE_O.jpg	32M_FE_O.jpg
335.161593914	1.8627791410000327	face	0.838642120361	1.0	0.8	n/a	n/a	337.024373055	337.027742863	338.023403883	n/a	FAZ_212.jpg	FFZ_236.jpg	FFZ_236.jpg
338.188103914	1.8359980589999625	face	1.1851708889	1.0	0.8	n/a	n/a	340.024101973	340.027775049	341.023817062	n/a	06F_FE_O.jpg	06F_FE_O.jpg	08F_FE_O.jpg
341.166255951	1.858282089	face	0.799551963806	1.0	0.8	n/a	n/a	343.02453804	343.028136969	344.024034023	n/a	MAZ_128.jpg	MAZ_128.jpg	MAX_39.jpg
347.0607059	1.9630801679999763	shape	1.15259599686	1.0	0.8	344.124417067	347.023146868	349.023786068	349.028226852	350.022408009	n/a	circle.bmp	oval-vertical.bmp	oval-vertical.bmp
350.152457952	1.870743989999994	shape	1.01433706284	1.0	0.8	n/a	n/a	352.023201942	352.026876926	353.022019863	n/a	oval-horizontal.bmp	oval-horizontal.bmp	circle.bmp
353.149222851	1.8729372020000028	shape	1.24926805496	1.0	0.8	n/a	n/a	355.022160053	355.025763035	356.021909952	n/a	oval-horizontal.bmp	oval-vertical.bmp	oval-vertical.bmp
356.149374008	1.873255014999984	shape	0.863406181335	1.0	0.8	n/a	n/a	358.022629023	358.026124001	359.021734953	n/a	oval-horizontal.bmp	circle.bmp	circle.bmp
359.14894104	1.8727760319999904	shape	1.04754304886	1.0	0.8	n/a	n/a	361.021717072	361.02559495	362.021630049	n/a	oval-horizontal.bmp	oval-horizontal.bmp	oval-vertical.bmp
362.148288012	1.873476982	shape	0.864502906799	1.0	0.8	n/a	n/a	364.021764994	364.025452852	365.020846844	n/a	circle.bmp	circle.bmp	oval-vertical.bmp
368.076797962	1.944478989000004	face	1.05399608612	1.0	0.8	365.127012014	368.021178961	370.021276951	370.025780916	371.020163059	n/a	FFZ_18.jpg	FAZ_129.jpg	FAZ_129.jpg
371.188667059	1.8319759369999813	face	1.28742814064	1.0	0.8	n/a	n/a	373.020642996	373.024600983	374.020570993	n/a	20M_FE_O.jpg	24M_FE_O.jpg	24M_FE_O.jpg
374.165844917	1.8545110229999864	face	0.791999101639	1.0	0.8	n/a	n/a	376.02035594	376.024416924	377.019377947	n/a	FAZ_23.jpg	FAX_25.jpg	FAX_25.jpg
377.185974836	1.834712029000002	face	0.845668077469	1.0	0.8	n/a	n/a	379.020686865	379.024698019	380.019134045	n/a	33M_FE_O.jpg	33M_FE_O.jpg	35M_FE_O.jpg
380.192502022	1.827306032000024	face	1.06105089188	1.0	0.8	n/a	n/a	382.019808054	382.023488998	383.018637896	n/a	01F_AN_O.jpg	01F_AN_O.jpg	02F_AN_O.jpg
383.163712025	1.855509996000024	face	0.878216028214	1.0	0.8	n/a	n/a	385.019222021	385.023047924	386.019130945	394.417557001	MFZ_132.jpg	MFZ_132.jpg	MFZ_120.jpg
