onset	duration	trial_type	response_time	accuracy_binarized	tr_seconds	cueStartTime	cueEndTime	trialEndTime	fixStartTime	fixEndTime	runEndTime	stimLeft	stimTop	stimRight
11.0837001801	1.9569118022000005	shape	1.19096183777	1.0	0.8	8.03372311592	11.0248160362	13.0406119823	13.0571141243	14.0396161079	n/a	oval-horizontal.bmp	oval-horizontal.bmp	oval-vertical.bmp
14.1687932014	1.870444774700001	shape	1.02590990067	1.0	0.8	n/a	n/a	16.0392379761	16.0559360981	17.0361909866	n/a	oval-horizontal.bmp	oval-vertical.bmp	oval-vertical.bmp
17.1544601917	1.8848059178000007	shape	0.65235209465	1.0	0.8	n/a	n/a	19.0392661095	19.0546941757	20.0379500389	n/a	circle.bmp	circle.bmp	oval-vertical.bmp
20.1551761627	1.8827569485000024	shape	0.653357982635	1.0	0.8	n/a	n/a	22.0379331112	22.0541050434	23.0372819901	n/a	circle.bmp	oval-vertical.bmp	oval-vertical.bmp
23.1548211575	1.8811328411000008	shape	0.783452987671	1.0	0.8	n/a	n/a	25.0359539986	25.0533471107	26.0360300541	n/a	oval-horizontal.bmp	circle.bmp	circle.bmp
26.1414730549	1.8945009708	shape	0.814795970917	1.0	0.8	n/a	n/a	28.0359740257	28.0516760349	29.035326004	n/a	oval-horizontal.bmp	oval-horizontal.bmp	circle.bmp
32.1015100479	1.9323861598999983	face	0.991091966629	1.0	0.8	29.1131350994	32.0334889889	34.0338962078	34.0506360531	35.0330660343	n/a	FAZ_23.jpg	FAZ_23.jpg	FAX_43.jpg
35.1784310341	1.8511290550000008	face	0.887099981308	1.0	0.8	n/a	n/a	37.0295600891	37.0461790562	38.0297071934	n/a	26M_FE_O.jpg	26M_FE_O.jpg	27M_FE_O.BMP
38.1644690037	1.8681170939999987	face	0.852559089661	1.0	0.8	n/a	n/a	40.0325860977	40.0492429733	41.0311510563	n/a	MFX_16.jpg	MFZ_50.jpg	MFZ_50.jpg
41.1993770599	1.8318390847000003	face	0.819670200348	1.0	0.8	n/a	n/a	43.0312161446	43.0488421917	44.0301439762	n/a	09F_AN_O.jpg	09F_AN_O.jpg	10F_AN_O.jpg
44.181150198	1.8491749763000056	face	1.2034330368	1.0	0.8	n/a	n/a	46.0303251743	46.0471839905	47.0297141075	n/a	38M_AN_O.BMP	39M_AN_O.jpg	39M_AN_O.jpg
47.1640121937	1.865584850299996	face	1.38332295418	1.0	0.8	n/a	n/a	49.029597044	49.0457031727	50.0287971497	n/a	FFZ_102.jpg	FFX_130.jpg	FFX_130.jpg
53.0884962082	1.956151962299998	shape	0.826716899872	1.0	0.8	50.1073861122	53.0444250107	55.0446481705	55.0608801842	56.0434451103	n/a	oval-horizontal.bmp	oval-vertical.bmp	oval-vertical.bmp
56.1571249962	1.882291078600005	shape	0.620594024658	1.0	0.8	n/a	n/a	58.0394160748	58.0570960045	59.0398840904	n/a	circle.bmp	oval-vertical.bmp	oval-vertical.bmp
59.1580719948	1.8842811584000003	shape	0.738883972168	1.0	0.8	n/a	n/a	61.0423531532	61.0584130287	62.0419511795	n/a	oval-horizontal.bmp	oval-horizontal.bmp	oval-vertical.bmp
62.1754910946	1.8665390015000085	shape	0.702616930008	1.0	0.8	n/a	n/a	64.0420300961	64.0583519936	65.0411570072	n/a	oval-horizontal.bmp	oval-horizontal.bmp	circle.bmp
65.1584000587	1.881425142300003	shape	0.534368991852	1.0	0.8	n/a	n/a	67.039825201	67.0573260784	68.0397391319	n/a	circle.bmp	circle.bmp	oval-vertical.bmp
68.1572721004	1.88250803950001	shape	0.885843992233	1.0	0.8	n/a	n/a	70.0397801399	70.0560162067	71.0383040905	n/a	oval-horizontal.bmp	circle.bmp	circle.bmp
74.1313750744	1.906366109800004	face	1.00999808311	1.0	0.8	71.119726181	74.0372831821	76.0377411842	76.0538771152	77.0368289948	n/a	03F_FE_O.jpg	05F_FE_O.jpg	05F_FE_O.jpg
77.1664280891	1.8672780991000053	face	0.819133043289	1.0	0.8	n/a	n/a	79.0337061882	79.0499911308	80.0329442024	n/a	FAZ_32.jpg	FAZ_32.jpg	FAX_45.jpg
80.1682360172	1.868054151599992	face	1.08867788315	1.0	0.8	n/a	n/a	82.0362901688	82.0522940159	83.0350081921	n/a	MAZ_128.jpg	MAZ_101.jpg	MAZ_101.jpg
83.1867330074	1.8486089707000133	face	1.33519983292	1.0	0.8	n/a	n/a	85.0353419781	85.0516691208	86.0347080231	n/a	11F_AN_O.jpg	11F_AN_O.jpg	12F_AN_O.jpg
86.1857111454	1.8479390143999976	face	1.07000517845	1.0	0.8	n/a	n/a	88.0336501598	88.050369978	89.0327320099	n/a	26M_FE_O.jpg	33M_FE_O.jpg	33M_FE_O.jpg
89.1676290035	1.866014003800004	face	1.06954216957	1.0	0.8	n/a	n/a	91.0336430073	91.0496079922	92.0321910381	n/a	MFZ_132.jpg	MFZ_132.jpg	MFZ_120.jpg
95.0757730007	1.9555771351000004	shape	0.759041070938	1.0	0.8	92.1234431267	95.0314750671	97.0313501358	97.0479040146	98.0306620598	n/a	circle.bmp	oval-vertical.bmp	oval-vertical.bmp
98.1435201168	1.9002840521999929	shape	0.850906133652	1.0	0.8	n/a	n/a	100.043804169	100.060606003	101.044159174	n/a	oval-horizontal.bmp	oval-horizontal.bmp	circle.bmp
101.16199398	1.8677890299999973	shape	0.655148983002	1.0	0.8	n/a	n/a	103.02978301	103.046523094	104.028954029	n/a	oval-horizontal.bmp	oval-vertical.bmp	oval-vertical.bmp
104.147209167	1.8817148210000028	shape	0.753200054169	1.0	0.8	n/a	n/a	106.028923988	106.045706034	107.028287172	n/a	oval-horizontal.bmp	circle.bmp	circle.bmp
107.145655155	1.899034977	shape	0.668103933334	1.0	0.8	n/a	n/a	109.044690132	109.060710192	110.043603182	n/a	oval-horizontal.bmp	oval-horizontal.bmp	oval-vertical.bmp
110.161384106	1.881789921999996	shape	0.635677099228	1.0	0.8	n/a	n/a	112.043174028	112.059817076	113.042570114	n/a	circle.bmp	circle.bmp	oval-vertical.bmp
116.108893156	1.9328880310000045	face	0.842218160629	1.0	0.8	113.125450134	116.042002201	118.041781187	118.057754993	119.040590048	n/a	FAZ_23.jpg	FAZ_23.jpg	FAX_43.jpg
119.187236071	1.8501651280000004	face	0.867099046707	1.0	0.8	n/a	n/a	121.037401199	121.054602146	122.037868977	n/a	26M_FE_O.jpg	26M_FE_O.jpg	27M_FE_O.BMP
122.188217163	1.851183890999991	face	0.738288164139	1.0	0.8	n/a	n/a	124.039401054	124.056910038	125.039121151	n/a	MFZ_50.jpg	MFZ_50.jpg	MFX_16.jpg
125.206302166	1.832528830000001	face	1.23497605324	1.0	0.8	n/a	n/a	127.038830996	127.054738045	128.03789711	n/a	10F_AN_O.jpg	09F_AN_O.jpg	09F_AN_O.jpg
128.188528061	1.8494291300000043	face	0.886520862579	1.0	0.8	n/a	n/a	130.037957191	130.053883076	131.036971092	n/a	38M_AN_O.BMP	39M_AN_O.jpg	39M_AN_O.jpg
131.171380043	1.8654041290000123	face	0.835803031921	1.0	0.8	n/a	n/a	133.036784172	133.053486109	134.036166191	n/a	FFZ_102.jpg	FFX_130.jpg	FFX_130.jpg
137.080053091	1.9550850390000107	shape	0.50963807106	1.0	0.8	134.121292114	137.035473108	139.03513813	139.050922155	140.034445047	n/a	oval-horizontal.bmp	oval-horizontal.bmp	oval-vertical.bmp
140.147778034	1.883052111000012	shape	0.686789035797	1.0	0.8	n/a	n/a	142.030830145	142.048044205	143.033360004	n/a	oval-horizontal.bmp	oval-vertical.bmp	oval-vertical.bmp
143.148917198	1.8848278520000008	shape	0.587778091431	1.0	0.8	n/a	n/a	145.03374505	145.050580978	146.032814026	n/a	circle.bmp	circle.bmp	oval-vertical.bmp
146.149419069	1.882483006000001	shape	0.586163043976	1.0	0.8	n/a	n/a	148.031902075	148.049052	149.031895161	n/a	circle.bmp	oval-vertical.bmp	oval-vertical.bmp
149.149646997	1.8818991189999963	shape	0.685475111008	1.0	0.8	n/a	n/a	151.031546116	151.047096014	152.030256987	n/a	oval-horizontal.bmp	circle.bmp	circle.bmp
152.164944172	1.865865946000013	shape	0.786436080933	1.0	0.8	n/a	n/a	154.030810118	154.046410084	155.029290199	n/a	oval-horizontal.bmp	oval-horizontal.bmp	circle.bmp
158.123256207	1.9055268760000104	face	1.15694594383	1.0	0.8	155.116835117	158.028855085	160.028783083	160.045077085	161.044421196	n/a	20M_FE_O.jpg	21M_FE_O.jpg	21M_FE_O.jpg
161.208606005	1.832262039	face	0.870687007904	1.0	0.8	n/a	n/a	163.040868044	163.058302164	164.04345417	n/a	01F_AN_O.jpg	07F_AN_O.jpg	07F_AN_O.jpg
164.178044081	1.865547894999992	face	0.871686935425	1.0	0.8	n/a	n/a	166.043591976	166.059398174	167.042884111	n/a	FFX_139.jpg	FFZ_102.jpg	FFZ_102.jpg
167.211048126	1.831484079999996	face	0.785778999329	1.0	0.8	n/a	n/a	169.042532206	169.059391975	170.041374207	n/a	23M_AN_O.jpg	23M_AN_O.jpg	22M_AN_O.jpg
170.176350117	1.8649978630000128	face	0.685549020767	1.0	0.8	n/a	n/a	172.04134798	172.05817914	173.040727139	n/a	MAZ_146.jpg	MAZ_146.jpg	MAX_233.jpg
173.208319187	1.83145880699999	face	0.916615009308	1.0	0.8	n/a	n/a	175.039777994	175.05707407	176.039005041	n/a	15F_FE_O.jpg	15F_FE_O.jpg	16F_FE_O.jpg
179.083401203	1.955352782999995	shape	0.808266162872	1.0	0.8	176.126113176	179.039093971	181.038753986	181.055317163	182.03412509	n/a	oval-horizontal.bmp	oval-vertical.bmp	oval-vertical.bmp
182.168666124	1.866452933000005	shape	0.552932977676	1.0	0.8	n/a	n/a	184.035119057	184.051686049	185.037155151	n/a	circle.bmp	oval-vertical.bmp	oval-vertical.bmp
185.169579983	1.867051124	shape	0.654578208923	1.0	0.8	n/a	n/a	187.036631107	187.053524017	188.035835981	n/a	oval-horizontal.bmp	oval-horizontal.bmp	oval-vertical.bmp
188.154268026	1.881880998999975	shape	0.617414951324	1.0	0.8	n/a	n/a	190.036149025	190.051875114	191.035551071	n/a	oval-horizontal.bmp	oval-horizontal.bmp	circle.bmp
191.152582169	1.882342815000016	shape	0.519696950912	1.0	0.8	n/a	n/a	193.034924984	193.051154137	194.034198999	n/a	circle.bmp	circle.bmp	oval-vertical.bmp
194.152541161	1.881383894999999	shape	0.716676950455	1.0	0.8	n/a	n/a	196.033925056	196.050033092	197.033192158	n/a	oval-horizontal.bmp	circle.bmp	circle.bmp
200.094459057	1.937932014000012	face	0.7244181633	1.0	0.8	197.120787144	200.032309055	202.032391071	202.048587084	203.031665087	n/a	FFX_54.jpg	FFX_54.jpg	FAX_51.jpg
203.182758093	1.846745014000021	face	0.78439283371	1.0	0.8	n/a	n/a	205.029503107	205.045363188	206.030351162	n/a	40M_FE_O.BMP	41M_FE_O.jpg	41M_FE_O.jpg
206.196678162	1.8338358399999777	face	0.837631940842	1.0	0.8	n/a	n/a	208.030514002	208.047546148	209.029525995	n/a	29M_AN_O.jpg	29M_AN_O.jpg	28M_AN_O.jpg
209.18050313	1.849276065999988	face	0.818277835846	1.0	0.8	n/a	n/a	211.029779196	211.046037197	212.029335976	n/a	FFZ_18.jpg	FFZ_29.jpg	FFZ_29.jpg
212.213257074	1.8323450089999933	face	1.13646483421	1.0	0.8	n/a	n/a	214.045602083	214.06152606	215.043433189	n/a	19F_AN_O.jpg	19F_AN_O.jpg	09F_AN_O.jpg
215.196843147	1.8474068639999928	face	0.835875034332	1.0	0.8	n/a	n/a	217.044250011	217.061228991	218.043388128	n/a	MFZ_132.jpg	MFZ_7.jpg	MFZ_7.jpg
221.088448048	1.9537889949999965	shape	0.724858045578	1.0	0.8	218.134071112	221.041954041	223.042237043	223.05827117	224.037599087	n/a	circle.bmp	oval-vertical.bmp	oval-vertical.bmp
224.159732103	1.8795089729999856	shape	0.619265079498	1.0	0.8	n/a	n/a	226.039241076	226.056657076	227.041198015	n/a	oval-horizontal.bmp	oval-horizontal.bmp	circle.bmp
227.173969984	1.867201090000009	shape	0.603623151779	1.0	0.8	n/a	n/a	229.041171074	229.057305098	230.040321112	n/a	oval-horizontal.bmp	oval-vertical.bmp	oval-vertical.bmp
230.175029039	1.8645479679999823	shape	0.668050050735	1.0	0.8	n/a	n/a	232.039577007	232.056837082	233.038985014	n/a	oval-horizontal.bmp	circle.bmp	circle.bmp
233.160279036	1.878221034999996	shape	0.682004928589	1.0	0.8	n/a	n/a	235.038500071	235.055270195	236.037791014	n/a	oval-horizontal.bmp	oval-horizontal.bmp	oval-vertical.bmp
236.162446976	1.875464201	shape	0.779474020004	1.0	0.8	n/a	n/a	238.037911177	238.054033041	239.036571026	n/a	circle.bmp	circle.bmp	oval-vertical.bmp
242.132462025	1.9035611150000025	face	1.33876895905	1.0	0.8	239.128961086	242.036148071	244.03602314	244.052295208	245.03126812	n/a	20M_FE_O.jpg	21M_FE_O.jpg	21M_FE_O.jpg
245.19917798	1.834310055000003	face	0.853549003601	1.0	0.8	n/a	n/a	247.033488035	247.051671028	248.034054995	n/a	07F_AN_O.jpg	07F_AN_O.jpg	01F_AN_O.jpg
248.185086012	1.8495120999999983	face	1.12008213997	1.0	0.8	n/a	n/a	250.034598112	250.050664186	251.032949209	n/a	FFZ_102.jpg	FFZ_102.jpg	FFX_139.jpg
251.204138041	1.8294041150000169	face	0.950833082199	1.0	0.8	n/a	n/a	253.033542156	253.050294161	254.032461166	n/a	22M_AN_O.jpg	23M_AN_O.jpg	23M_AN_O.jpg
254.183914185	1.848585844000013	face	1.21875715256	1.0	0.8	n/a	n/a	256.032500029	256.0488832	257.030872107	n/a	MAX_233.jpg	MAZ_146.jpg	MAZ_146.jpg
257.199246168	1.8316338060000128	face	0.935889959335	1.0	0.8	n/a	n/a	259.030879974	259.047954082	260.030322075	n/a	15F_FE_O.jpg	15F_FE_O.jpg	16F_FE_O.jpg
263.075205088	1.954461096999978	shape	0.741810798645	1.0	0.8	260.124710083	263.029579163	265.029666185	265.045943975	266.042292118	n/a	oval-horizontal.bmp	oval-horizontal.bmp	oval-vertical.bmp
266.176177979	1.8524680130000208	shape	0.784558057785	1.0	0.8	n/a	n/a	268.028645992	268.045693159	269.028266191	n/a	oval-horizontal.bmp	oval-vertical.bmp	oval-vertical.bmp
269.161600113	1.8832440379999864	shape	0.637411117554	1.0	0.8	n/a	n/a	271.044844151	271.060889006	272.044337034	n/a	circle.bmp	circle.bmp	oval-vertical.bmp
272.180176973	1.8632020949999628	shape	0.768023967743	1.0	0.8	n/a	n/a	274.043379068	274.060126066	275.042555094	n/a	circle.bmp	oval-vertical.bmp	oval-vertical.bmp
275.19590807	1.846436023000024	shape	0.768633127213	1.0	0.8	n/a	n/a	277.042344093	277.058768988	278.041581154	n/a	oval-horizontal.bmp	circle.bmp	circle.bmp
278.176192045	1.865116119999982	shape	0.735721111298	1.0	0.8	n/a	n/a	280.041308165	280.057973146	281.040666103	n/a	oval-horizontal.bmp	oval-horizontal.bmp	circle.bmp
284.102054119	1.9373309609999865	face	1.07513904572	1.0	0.8	281.138200045	284.039136171	286.03938508	286.056141138	287.036693096	n/a	FFZ_18.jpg	FAZ_129.jpg	FAZ_129.jpg
287.206916094	1.832293032999985	face	0.904238939285	1.0	0.8	n/a	n/a	289.039209127	289.055487156	290.038573027	n/a	20M_FE_O.jpg	24M_FE_O.jpg	24M_FE_O.jpg
290.187970161	1.8495550160000107	face	0.836110115051	1.0	0.8	n/a	n/a	292.037525177	292.054917097	293.037178993	n/a	FAZ_23.jpg	FAX_25.jpg	FAX_25.jpg
293.205353022	1.831128120000017	face	0.884313106537	1.0	0.8	n/a	n/a	295.036481142	295.053747177	296.036612034	n/a	33M_FE_O.jpg	33M_FE_O.jpg	35M_FE_O.jpg
296.208650112	1.827228069	face	0.814212083817	1.0	0.8	n/a	n/a	298.035878181	298.052299023	299.035135031	n/a	01F_AN_O.jpg	01F_AN_O.jpg	02F_AN_O.jpg
299.176328182	1.8584179879999847	face	0.91188788414	1.0	0.8	n/a	n/a	301.03474617	301.050938129	302.034320116	n/a	MFZ_132.jpg	MFZ_132.jpg	MFZ_120.jpg
305.079122066	1.9541759499999785	shape	0.858331918716	1.0	0.8	302.139258146	305.033111095	307.033298016	307.049209118	308.02966404	n/a	oval-horizontal.bmp	oval-vertical.bmp	oval-vertical.bmp
308.163581133	1.8685770030000413	shape	0.737070798874	1.0	0.8	n/a	n/a	310.032158136	310.049236059	311.031676054	n/a	circle.bmp	oval-vertical.bmp	oval-vertical.bmp
311.166311979	1.865457058000004	shape	0.886312961578	1.0	0.8	n/a	n/a	313.031769037	313.047639132	314.031151056	n/a	oval-horizontal.bmp	oval-horizontal.bmp	oval-vertical.bmp
314.165182114	1.865828036999972	shape	0.486268043518	1.0	0.8	n/a	n/a	316.031010151	316.0473001	317.030004025	n/a	oval-horizontal.bmp	oval-horizontal.bmp	circle.bmp
317.163815975	1.8657441139999944	shape	0.700955152512	1.0	0.8	n/a	n/a	319.029560089	319.045994997	320.028928995	n/a	circle.bmp	circle.bmp	oval-vertical.bmp
320.162337065	1.8827669620000047	shape	0.745229005814	1.0	0.8	n/a	n/a	322.045104027	322.06183219	323.044491053	n/a	oval-horizontal.bmp	circle.bmp	circle.bmp
326.138768196	1.901340007999977	face	1.18651008606	1.0	0.8	323.142479181	326.043632984	328.040108204	328.0558002	329.039734125	n/a	17F_FE_O.jpg	18F_FE_O.jpg	18F_FE_O.jpg
329.210887194	1.831051825999964	face	0.736852884293	1.0	0.8	n/a	n/a	331.04193902	331.059298038	332.042101145	n/a	42M_AN_O.jpg	43M_AN_O.jpg	43M_AN_O.jpg
332.22665	1.8153190609999683	face	0.75087594986	1.0	0.8	n/a	n/a	334.041969061	334.057841063	335.041261196	n/a	31M_FE_O.jpg	31M_FE_O.jpg	32M_FE_O.jpg
335.193961143	1.8459990029999744	face	0.867856025696	1.0	0.8	n/a	n/a	337.039960146	337.057236195	338.040048122	n/a	FAZ_212.jpg	FFZ_236.jpg	FFZ_236.jpg
338.212836027	1.8266220090000047	face	1.57980108261	1.0	0.8	n/a	n/a	340.039458036	340.056202173	341.038830996	n/a	06F_FE_O.jpg	06F_FE_O.jpg	08F_FE_O.jpg
341.189732075	1.8492710589999888	face	0.860347986221	1.0	0.8	n/a	n/a	343.039003134	343.055097103	344.037661076	n/a	MAZ_128.jpg	MAZ_128.jpg	MAX_39.jpg
347.083561182	1.9497418400000013	shape	0.904597043991	1.0	0.8	344.137497187	347.037219048	349.033303022	349.050235033	350.033858061	n/a	circle.bmp	oval-vertical.bmp	oval-vertical.bmp
350.168413162	1.8675229550000267	shape	0.704288959503	1.0	0.8	n/a	n/a	352.035936117	352.052139044	353.035992146	n/a	oval-horizontal.bmp	oval-horizontal.bmp	circle.bmp
353.170089006	1.8657951359999745	shape	0.819838047028	1.0	0.8	n/a	n/a	355.035884142	355.052038193	356.034162998	n/a	oval-horizontal.bmp	oval-vertical.bmp	oval-vertical.bmp
356.168991089	1.8651959890000285	shape	0.66895699501	1.0	0.8	n/a	n/a	358.034187078	358.051134109	359.03344202	n/a	oval-horizontal.bmp	circle.bmp	circle.bmp
359.167926073	1.8644330500000024	shape	0.719287872314	1.0	0.8	n/a	n/a	361.032359123	361.049299002	362.032736063	n/a	oval-horizontal.bmp	oval-horizontal.bmp	oval-vertical.bmp
362.174090147	1.8580658440000093	shape	0.646255970001	1.0	0.8	n/a	n/a	364.032155991	364.048014164	365.031548977	n/a	circle.bmp	circle.bmp	oval-vertical.bmp
368.09408617	1.9502170089999709	face	0.920150995255	1.0	0.8	365.12993598	368.030312061	370.044303179	370.061251163	371.044593096	n/a	FFZ_18.jpg	FAZ_129.jpg	FAZ_129.jpg
371.261394024	1.7685439589999987	face	1.1709690094	1.0	0.8	n/a	n/a	373.029937983	373.046497107	374.029371977	n/a	20M_FE_O.jpg	24M_FE_O.jpg	24M_FE_O.jpg
374.196840048	1.831840037999996	face	0.885690927505	1.0	0.8	n/a	n/a	376.028680086	376.044668198	377.028144121	n/a	FAZ_23.jpg	FAX_25.jpg	FAX_25.jpg
377.214908123	1.8294830320000413	face	0.86677312851	1.0	0.8	n/a	n/a	379.044391155	379.059973001	380.043622017	n/a	33M_FE_O.jpg	33M_FE_O.jpg	35M_FE_O.jpg
380.216341972	1.8269731999999976	face	0.74510884285	1.0	0.8	n/a	n/a	382.043315172	382.060188055	383.042234182	n/a	01F_AN_O.jpg	01F_AN_O.jpg	02F_AN_O.jpg
383.194945097	1.847436904999995	face	0.735832929611	1.0	0.8	n/a	n/a	385.042382002	385.058777094	386.041649103	394.439237118	MFZ_132.jpg	MFZ_132.jpg	MFZ_120.jpg
