onset	duration	trial_type	response_time	accuracy_binarized	tr_seconds	cueStartTime	cueEndTime	trialEndTime	fixStartTime	fixEndTime	runEndTime	stimLeft	stimTop	stimRight
11.0563778877	1.9697740078	shape	1.20288610458	1.0	0.8	8.02131199837	11.0098979473	13.0261518955	13.0308728218	14.0255157948	n/a	oval-horizontal.bmp	oval-horizontal.bmp	oval-vertical.bmp
14.1345238686	1.8914859294	shape	1.00326895714	1.0	0.8	n/a	n/a	16.026009798	16.0299959183	17.0256919861	n/a	oval-horizontal.bmp	oval-vertical.bmp	oval-vertical.bmp
17.1246857643	1.900829076800001	shape	0.934976100922	1.0	0.8	n/a	n/a	19.0255148411	19.0291209221	20.0242419243	n/a	circle.bmp	circle.bmp	oval-vertical.bmp
20.1228067875	1.9024419783999988	shape	0.836526870728	1.0	0.8	n/a	n/a	22.0252487659	22.0284929276	23.0242869854	n/a	circle.bmp	oval-vertical.bmp	oval-vertical.bmp
23.1268408298	1.8975479603000025	shape	0.819241046906	1.0	0.8	n/a	n/a	25.0243887901	25.0279829502	26.0241408348	n/a	oval-horizontal.bmp	circle.bmp	circle.bmp
26.126046896	1.8970439434	shape	0.60102391243	1.0	0.8	n/a	n/a	28.0230908394	28.0268559456	29.0236399174	n/a	oval-horizontal.bmp	oval-horizontal.bmp	circle.bmp
32.0922157764	1.9318242072999965	face	0.870136976242	1.0	0.8	29.0972599983	32.0227348804	34.0240399837	34.0285928249	35.0229628086	n/a	FAZ_23.jpg	FAZ_23.jpg	FAX_43.jpg
35.1631448269	1.8612091540999955	face	0.903527021408	1.0	0.8	n/a	n/a	37.024353981	37.0279588699	38.0226688385	n/a	26M_FE_O.jpg	26M_FE_O.jpg	27M_FE_O.BMP
38.1471438408	1.8758051395000024	face	0.703015089035	1.0	0.8	n/a	n/a	40.0229489803	40.0267608166	41.0230748653	n/a	MFX_16.jpg	MFZ_50.jpg	MFZ_50.jpg
41.1751539707	1.8476610183999969	face	0.902809143066	1.0	0.8	n/a	n/a	43.0228149891	43.0270569324	44.0224738121	n/a	09F_AN_O.jpg	09F_AN_O.jpg	10F_AN_O.jpg
44.1588189602	1.863808870299998	face	0.970273971558	1.0	0.8	n/a	n/a	46.0226278305	46.0263087749	47.0220208168	n/a	38M_AN_O.BMP	39M_AN_O.jpg	39M_AN_O.jpg
47.1436178684	1.8787879944	face	1.05033302307	1.0	0.8	n/a	n/a	49.0224058628	49.0264978409	50.0213518143	n/a	FFZ_102.jpg	FFX_130.jpg	FFX_130.jpg
53.0590257645	1.9627420902000023	shape	0.719383955002	1.0	0.8	50.096326828	53.0214018822	55.0217678547	55.0263748169	56.0212819576	n/a	oval-horizontal.bmp	oval-vertical.bmp	oval-vertical.bmp
56.1236679554	1.897240877199998	shape	0.770307064056	1.0	0.8	n/a	n/a	58.0209088326	58.024750948	59.0201659203	n/a	circle.bmp	oval-vertical.bmp	oval-vertical.bmp
59.1207947731	1.8997931480000003	shape	1.11075282097	1.0	0.8	n/a	n/a	61.0205879211	61.0242269039	62.0199577808	n/a	oval-horizontal.bmp	oval-horizontal.bmp	oval-vertical.bmp
62.1249117851	1.8954010010000104	shape	0.88556599617	1.0	0.8	n/a	n/a	64.0203127861	64.0243778229	65.0199999809	n/a	oval-horizontal.bmp	oval-horizontal.bmp	circle.bmp
65.123800993	1.8962919712	shape	0.836757898331	1.0	0.8	n/a	n/a	67.0200929642	67.0236949921	68.0198938847	n/a	circle.bmp	circle.bmp	oval-vertical.bmp
68.121295929	1.898375987999998	shape	0.753401041031	1.0	0.8	n/a	n/a	70.019671917	70.0234689713	71.0185279846	n/a	oval-horizontal.bmp	circle.bmp	circle.bmp
74.108317852	1.9108519554000047	face	1.08760094643	1.0	0.8	71.0940067768	74.0186958313	76.0191698074	76.0239889622	77.0186269283	n/a	03F_FE_O.jpg	05F_FE_O.jpg	05F_FE_O.jpg
77.1401069164	1.8786869048999928	face	0.819576025009	1.0	0.8	n/a	n/a	79.0187938213	79.0224018097	80.0180828571	n/a	FAZ_32.jpg	FAZ_32.jpg	FAX_45.jpg
80.1419639587	1.876770019600002	face	1.20331692696	1.0	0.8	n/a	n/a	82.0187339783	82.0224049091	83.01785779	n/a	MAZ_128.jpg	MAZ_101.jpg	MAZ_101.jpg
83.1596977711	1.8536641597000028	face	0.919324159622	1.0	0.8	n/a	n/a	85.0133619308	85.0169868469	86.0130388737	n/a	11F_AN_O.jpg	11F_AN_O.jpg	12F_AN_O.jpg
86.158634901	1.858994007199996	face	1.32006597519	1.0	0.8	n/a	n/a	88.0176289082	88.0213899612	89.0169739723	n/a	26M_FE_O.jpg	33M_FE_O.jpg	33M_FE_O.jpg
89.1393649578	1.878854990000008	face	0.887518882751	1.0	0.8	n/a	n/a	91.0182199478	91.0218658447	92.0164649487	n/a	MFZ_132.jpg	MFZ_132.jpg	MFZ_120.jpg
95.0544137955	1.9622781276000008	shape	0.658468008041	1.0	0.8	92.0943799019	95.0165028572	97.0166919231	97.0214099884	98.0158648491	n/a	circle.bmp	oval-vertical.bmp	oval-vertical.bmp
98.1185708046	1.897631168399997	shape	0.62385892868	1.0	0.8	n/a	n/a	100.016201973	100.020442963	101.015720844	n/a	oval-horizontal.bmp	oval-horizontal.bmp	circle.bmp
101.118430853	1.8977899549999933	shape	0.940671205521	1.0	0.8	n/a	n/a	103.016220808	103.019836903	104.015724897	n/a	oval-horizontal.bmp	oval-vertical.bmp	oval-vertical.bmp
104.119711876	1.896498918000006	shape	0.824023962021	1.0	0.8	n/a	n/a	106.016210794	106.019825935	107.015524864	n/a	oval-horizontal.bmp	circle.bmp	circle.bmp
107.120326996	1.894684791000003	shape	0.856499910355	1.0	0.8	n/a	n/a	109.015011787	109.018753767	110.014749765	n/a	oval-horizontal.bmp	oval-horizontal.bmp	oval-vertical.bmp
110.123481989	1.891148806000004	shape	0.703027009964	1.0	0.8	n/a	n/a	112.014630795	112.018631935	113.01448679	n/a	circle.bmp	circle.bmp	oval-vertical.bmp
116.070205927	1.9444758890000031	face	0.655992031097	1.0	0.8	113.095711946	116.013796806	118.014681816	118.019184828	119.013670921	n/a	FAZ_23.jpg	FAZ_23.jpg	FAX_43.jpg
119.149064779	1.8648891450000065	face	0.804049968719	1.0	0.8	n/a	n/a	121.013953924	121.017615795	122.013324976	n/a	26M_FE_O.jpg	26M_FE_O.jpg	27M_FE_O.BMP
122.139541864	1.873835087000004	face	0.804497003555	1.0	0.8	n/a	n/a	124.013376951	124.017001867	125.013195992	n/a	MFZ_50.jpg	MFZ_50.jpg	MFX_16.jpg
125.165985823	1.8478920459999983	face	1.03878808022	1.0	0.8	n/a	n/a	127.013877869	127.017281771	128.013032913	n/a	10F_AN_O.jpg	09F_AN_O.jpg	09F_AN_O.jpg
128.150915861	1.878830910000005	face	0.804392814636	1.0	0.8	n/a	n/a	130.029746771	130.033241987	131.028964996	n/a	38M_AN_O.BMP	39M_AN_O.jpg	39M_AN_O.jpg
131.153274775	1.8761401170000056	face	0.854427099228	1.0	0.8	n/a	n/a	133.029414892	133.03329277	134.028575897	n/a	FFZ_102.jpg	FFX_130.jpg	FFX_130.jpg
137.065803766	1.9630231860000151	shape	1.16925287247	1.0	0.8	134.110383987	137.028216839	139.028826952	139.033349991	140.028530836	n/a	oval-horizontal.bmp	oval-horizontal.bmp	oval-vertical.bmp
140.13888979	1.890052080000004	shape	1.11898517609	1.0	0.8	n/a	n/a	142.02894187	142.032614946	143.027680874	n/a	oval-horizontal.bmp	oval-vertical.bmp	oval-vertical.bmp
143.137851	1.8896188729999888	shape	0.602124929428	1.0	0.8	n/a	n/a	145.027469873	145.031158924	146.026997805	n/a	circle.bmp	circle.bmp	oval-vertical.bmp
146.132681847	1.894801139000009	shape	0.7376101017	1.0	0.8	n/a	n/a	148.027482986	148.031535864	149.026972771	n/a	circle.bmp	oval-vertical.bmp	oval-vertical.bmp
149.136272907	1.890982866999991	shape	0.768827915192	1.0	0.8	n/a	n/a	151.027255774	151.030880928	152.026679993	n/a	oval-horizontal.bmp	circle.bmp	circle.bmp
152.132256985	1.894704818000008	shape	0.936251163483	1.0	0.8	n/a	n/a	154.026961803	154.030467987	155.026346922	n/a	oval-horizontal.bmp	oval-horizontal.bmp	circle.bmp
158.102572918	1.923897027999999	face	1.26788401604	1.0	0.8	155.109728813	158.026160955	160.026469946	160.0315938	161.026016951	n/a	20M_FE_O.jpg	21M_FE_O.jpg	21M_FE_O.jpg
161.181958914	1.844400882999992	face	0.770947217941	1.0	0.8	n/a	n/a	163.026359797	163.030096769	164.024514914	n/a	01F_AN_O.jpg	07F_AN_O.jpg	07F_AN_O.jpg
164.151253939	1.8753168580000192	face	0.867961168289	1.0	0.8	n/a	n/a	166.026570797	166.030023813	167.025298834	n/a	FFX_139.jpg	FFZ_102.jpg	FFZ_102.jpg
167.173816919	1.850816012000024	face	0.853036880493	1.0	0.8	n/a	n/a	169.024632931	169.028308868	170.024295807	n/a	23M_AN_O.jpg	23M_AN_O.jpg	22M_AN_O.jpg
170.155357838	1.8699610230000017	face	0.751801967621	1.0	0.8	n/a	n/a	172.025318861	172.029377937	173.02382493	n/a	MAZ_146.jpg	MAZ_146.jpg	MAX_233.jpg
173.174945831	1.849580049999986	face	1.31999588013	1.0	0.8	n/a	n/a	175.024525881	175.02795887	176.023950815	n/a	15F_FE_O.jpg	15F_FE_O.jpg	16F_FE_O.jpg
179.072823763	1.9510982040000044	shape	1.33683300018	0.0	0.8	176.110996962	179.023680925	181.023921967	181.028598785	182.023983955	n/a	oval-horizontal.bmp	oval-vertical.bmp	oval-vertical.bmp
182.133775949	1.8892500409999968	shape	1.06823992729	1.0	0.8	n/a	n/a	184.02302599	184.026945829	185.022974968	n/a	circle.bmp	oval-vertical.bmp	oval-vertical.bmp
185.13635397	1.8867979050000088	shape	0.915604114532	1.0	0.8	n/a	n/a	187.023151875	187.026917934	188.02269578	n/a	oval-horizontal.bmp	oval-horizontal.bmp	oval-vertical.bmp
188.138191938	1.8847899440000049	shape	0.702540874481	1.0	0.8	n/a	n/a	190.022981882	190.026582956	191.022046804	n/a	oval-horizontal.bmp	oval-horizontal.bmp	circle.bmp
191.134114981	1.8885200019999784	shape	0.648694992065	1.0	0.8	n/a	n/a	193.022634983	193.026246786	194.021883965	n/a	circle.bmp	circle.bmp	oval-vertical.bmp
194.146236897	1.875123024000004	shape	0.754309892654	1.0	0.8	n/a	n/a	196.021359921	196.025364876	197.021787882	n/a	oval-horizontal.bmp	circle.bmp	circle.bmp
200.080130816	1.942116021999993	face	0.686635971069	1.0	0.8	197.108987808	200.020777941	202.022246838	202.026838779	203.0209589	n/a	FFX_54.jpg	FFX_54.jpg	FAX_51.jpg
203.16343689	1.8570649619999813	face	0.83074593544	1.0	0.8	n/a	n/a	205.020501852	205.023475885	206.020359993	n/a	40M_FE_O.BMP	41M_FE_O.jpg	41M_FE_O.jpg
206.160863876	1.8590660099999925	face	0.620362997055	1.0	0.8	n/a	n/a	208.019929886	208.023897886	209.019900799	n/a	29M_AN_O.jpg	29M_AN_O.jpg	28M_AN_O.jpg
209.143721819	1.8767659659999936	face	1.15426802635	1.0	0.8	n/a	n/a	211.020487785	211.024080992	212.019110918	n/a	FFZ_18.jpg	FFZ_29.jpg	FFZ_29.jpg
212.164344788	1.8554880620000065	face	0.796220064163	1.0	0.8	n/a	n/a	214.01983285	214.02371192	215.019935846	n/a	19F_AN_O.jpg	19F_AN_O.jpg	09F_AN_O.jpg
215.145740986	1.873674869000013	face	1.07892990112	1.0	0.8	n/a	n/a	217.019415855	217.023121834	218.018830776	n/a	MFZ_132.jpg	MFZ_7.jpg	MFZ_7.jpg
221.058350801	1.9602141379999976	shape	0.920086145401	1.0	0.8	218.108093977	221.018367767	223.018564939	223.022989988	224.018575907	n/a	circle.bmp	oval-vertical.bmp	oval-vertical.bmp
224.126649857	1.8915970320000213	shape	0.671689987183	1.0	0.8	n/a	n/a	226.018246889	226.021888971	227.017766953	n/a	oval-horizontal.bmp	oval-horizontal.bmp	circle.bmp
227.12655282	1.891329049999996	shape	1.1026070118	1.0	0.8	n/a	n/a	229.01788187	229.021616936	230.017299891	n/a	oval-horizontal.bmp	oval-vertical.bmp	oval-vertical.bmp
230.125496864	1.891860961999981	shape	0.987169027328	1.0	0.8	n/a	n/a	232.017357826	232.021191835	233.017126799	n/a	oval-horizontal.bmp	circle.bmp	circle.bmp
233.124396801	1.892910004000015	shape	0.669349908829	1.0	0.8	n/a	n/a	235.017306805	235.020477772	236.016605854	n/a	oval-horizontal.bmp	oval-horizontal.bmp	oval-vertical.bmp
236.123456955	1.8935990330000152	shape	1.21892690659	1.0	0.8	n/a	n/a	238.017055988	238.020653963	239.01629281	n/a	circle.bmp	circle.bmp	oval-vertical.bmp
242.091660976	1.924995900000028	face	1.45336818695	1.0	0.8	239.103346825	242.016697884	244.016656876	244.021292925	245.015965939	n/a	20M_FE_O.jpg	21M_FE_O.jpg	21M_FE_O.jpg
245.16383481	1.8524260519999984	face	1.1062040329	1.0	0.8	n/a	n/a	247.016260862	247.019836903	248.014838934	n/a	07F_AN_O.jpg	07F_AN_O.jpg	01F_AN_O.jpg
248.138068914	1.8777499199999848	face	0.8034491539	1.0	0.8	n/a	n/a	250.015818834	250.019334793	251.015310764	n/a	FFZ_102.jpg	FFZ_102.jpg	FFX_139.jpg
251.164240837	1.8510160449999944	face	n/a	0.0	0.8	n/a	n/a	253.015256882	253.018762827	254.014877796	n/a	22M_AN_O.jpg	23M_AN_O.jpg	23M_AN_O.jpg
254.141697884	1.8732841010000243	face	0.856331825256	1.0	0.8	n/a	n/a	256.014981985	256.018725872	257.014538765	n/a	MAX_233.jpg	MAZ_146.jpg	MAZ_146.jpg
257.158754826	1.85600709900001	face	0.874317884445	1.0	0.8	n/a	n/a	259.014761925	259.018306971	260.014273882	n/a	15F_FE_O.jpg	15F_FE_O.jpg	16F_FE_O.jpg
263.049780846	1.964885949999996	shape	0.641254901886	1.0	0.8	260.101681948	263.013644934	265.014666796	265.019231796	266.013704777	n/a	oval-horizontal.bmp	oval-horizontal.bmp	oval-vertical.bmp
266.123295784	1.8899550440000328	shape	0.936006069183	1.0	0.8	n/a	n/a	268.013250828	268.01745677	269.013059855	n/a	oval-horizontal.bmp	oval-vertical.bmp	oval-vertical.bmp
269.123100996	1.9074468609999824	shape	0.640194892883	1.0	0.8	n/a	n/a	271.030547857	271.034076929	272.029624939	n/a	circle.bmp	circle.bmp	oval-vertical.bmp
272.14033699	1.8891398910000128	shape	0.641746044159	1.0	0.8	n/a	n/a	274.029476881	274.033118963	275.0286479	n/a	circle.bmp	oval-vertical.bmp	oval-vertical.bmp
275.142067909	1.887418986	shape	0.640033006668	1.0	0.8	n/a	n/a	277.029486895	277.033131838	278.028877974	n/a	oval-horizontal.bmp	circle.bmp	circle.bmp
278.138065815	1.8909189699999729	shape	0.536926984787	1.0	0.8	n/a	n/a	280.028984785	280.032872915	281.028632879	n/a	oval-horizontal.bmp	oval-horizontal.bmp	circle.bmp
284.085841894	1.9427108770000243	face	0.752717018127	1.0	0.8	281.117617846	284.027968884	286.028552771	286.033075809	287.028196812	n/a	FFZ_18.jpg	FAZ_129.jpg	FAZ_129.jpg
287.182670832	1.8456499570000344	face	0.852877855301	1.0	0.8	n/a	n/a	289.028320789	289.03213191	290.027525902	n/a	20M_FE_O.jpg	24M_FE_O.jpg	24M_FE_O.jpg
290.153693914	1.8744878770000355	face	0.78783416748	1.0	0.8	n/a	n/a	292.028181791	292.032082796	293.027216911	n/a	FAZ_23.jpg	FAX_25.jpg	FAX_25.jpg
293.183702946	1.8440649510000071	face	0.671803951263	1.0	0.8	n/a	n/a	295.027767897	295.031224966	296.026503801	n/a	33M_FE_O.jpg	33M_FE_O.jpg	35M_FE_O.jpg
296.185097933	1.840890883999976	face	0.718863010406	1.0	0.8	n/a	n/a	298.025988817	298.029186964	299.025437832	n/a	01F_AN_O.jpg	01F_AN_O.jpg	02F_AN_O.jpg
299.152838945	1.873761892999994	face	0.804373025894	1.0	0.8	n/a	n/a	301.026600838	301.030136824	302.025863886	n/a	MFZ_132.jpg	MFZ_132.jpg	MFZ_120.jpg
305.061734915	1.964263915999993	shape	0.869004011154	1.0	0.8	302.115605831	305.025641918	307.025998831	307.030356884	308.025265932	n/a	oval-horizontal.bmp	oval-vertical.bmp	oval-vertical.bmp
308.136750937	1.887966871000004	shape	0.585330963135	1.0	0.8	n/a	n/a	310.024717808	310.02828598	311.024228811	n/a	circle.bmp	oval-vertical.bmp	oval-vertical.bmp
311.135865927	1.889412880000009	shape	0.586049795151	1.0	0.8	n/a	n/a	313.025278807	313.028427839	314.024490833	n/a	oval-horizontal.bmp	oval-horizontal.bmp	oval-vertical.bmp
314.138892889	1.8857100010000067	shape	0.520467042923	1.0	0.8	n/a	n/a	316.02460289	316.028648853	317.024128914	n/a	oval-horizontal.bmp	oval-horizontal.bmp	circle.bmp
317.138088942	1.886402844999964	shape	0.685863018036	1.0	0.8	n/a	n/a	319.024491787	319.028042793	320.023760796	n/a	circle.bmp	circle.bmp	oval-vertical.bmp
320.137549877	1.8867139819999463	shape	0.619879007339	1.0	0.8	n/a	n/a	322.024263859	322.027812958	323.024067879	n/a	oval-horizontal.bmp	circle.bmp	circle.bmp
326.112304926	1.911336899000048	face	1.35412192345	1.0	0.8	323.116359949	326.023306847	328.023641825	328.028116941	329.02314496	n/a	17F_FE_O.jpg	18F_FE_O.jpg	18F_FE_O.jpg
329.176009893	1.847696065999969	face	1.0534389019	1.0	0.8	n/a	n/a	331.023705959	331.027334929	332.023251772	n/a	42M_AN_O.jpg	43M_AN_O.jpg	43M_AN_O.jpg
332.180933952	1.8425748350000504	face	0.72020983696	1.0	0.8	n/a	n/a	334.023508787	334.027135849	335.022781849	n/a	31M_FE_O.jpg	31M_FE_O.jpg	32M_FE_O.jpg
335.160418987	1.862383842999975	face	0.885940074921	1.0	0.8	n/a	n/a	337.02280283	337.026479959	338.023241997	n/a	FAZ_212.jpg	FFZ_236.jpg	FFZ_236.jpg
338.187106848	1.8347899910000365	face	0.703527212143	1.0	0.8	n/a	n/a	340.021896839	340.025662899	341.022526979	n/a	06F_FE_O.jpg	06F_FE_O.jpg	08F_FE_O.jpg
341.160675764	1.862439155999993	face	0.636997938156	1.0	0.8	n/a	n/a	343.02311492	343.027032852	344.021517992	n/a	MAZ_128.jpg	MAZ_128.jpg	MAX_39.jpg
347.057976961	1.9644348620000187	shape	0.884177207947	1.0	0.8	344.119391918	347.02184391	349.022411823	349.026881933	350.020994902	n/a	circle.bmp	oval-vertical.bmp	oval-vertical.bmp
350.143526793	1.8777930730000207	shape	0.502878904343	1.0	0.8	n/a	n/a	352.021319866	352.025361776	353.021254778	n/a	oval-horizontal.bmp	oval-horizontal.bmp	circle.bmp
353.146217823	1.874828100000002	shape	0.861072421075	1.0	0.8	n/a	n/a	355.021045923	355.024723768	356.020480871	n/a	oval-horizontal.bmp	oval-vertical.bmp	oval-vertical.bmp
356.141532898	1.879179001000012	shape	0.637001037598	1.0	0.8	n/a	n/a	358.020711899	358.024575949	359.019973993	n/a	oval-horizontal.bmp	circle.bmp	circle.bmp
359.143558979	1.876821995	shape	0.520153045654	1.0	0.8	n/a	n/a	361.020380974	361.024064779	362.020035982	n/a	oval-horizontal.bmp	oval-horizontal.bmp	oval-vertical.bmp
362.141834974	1.877911805999986	shape	0.60427904129	1.0	0.8	n/a	n/a	364.01974678	364.023398876	365.019514799	n/a	circle.bmp	circle.bmp	oval-vertical.bmp
368.073455811	1.9462001320000013	face	0.585937023163	1.0	0.8	365.120230913	368.019570827	370.019655943	370.024446964	371.01857996	n/a	FFZ_18.jpg	FAZ_129.jpg	FAZ_129.jpg
371.185041904	1.835155010999984	face	0.870630979538	1.0	0.8	n/a	n/a	373.020196915	373.024012804	374.018425941	n/a	20M_FE_O.jpg	24M_FE_O.jpg	24M_FE_O.jpg
374.156704903	1.8617188929999884	face	0.704092025757	1.0	0.8	n/a	n/a	376.018423796	376.022751808	377.018161774	n/a	FAZ_23.jpg	FAX_25.jpg	FAX_25.jpg
377.178138971	1.8407118320000109	face	0.730610132217	1.0	0.8	n/a	n/a	379.018850803	379.022456884	380.017281771	n/a	33M_FE_O.jpg	33M_FE_O.jpg	35M_FE_O.jpg
380.188490868	1.8306529520000367	face	0.652349948883	1.0	0.8	n/a	n/a	382.01914382	382.022960901	383.017544985	n/a	01F_AN_O.jpg	01F_AN_O.jpg	02F_AN_O.jpg
383.15720892	1.8605279919999589	face	1.21833014488	1.0	0.8	n/a	n/a	385.017736912	385.021557808	386.017219782	394.41612792	MFZ_132.jpg	MFZ_132.jpg	MFZ_120.jpg
