onset	duration	trial_type	response_time	accuracy_binarized	tr_seconds	cueStartTime	cueEndTime	trialEndTime	fixStartTime	fixEndTime	runEndTime	stimLeft	stimTop	stimRight
11.0692207813	1.9654672146000003	shape	1.12070393562	1.0	0.8	8.02779889107	11.0176339149	13.0346879959	13.0392789841	14.0335149765	n/a	oval-horizontal.bmp	oval-horizontal.bmp	oval-vertical.bmp
14.1537947655	1.8801541327999995	shape	1.18670606613	1.0	0.8	n/a	n/a	16.0339488983	16.0375678539	17.033107996	n/a	oval-horizontal.bmp	oval-vertical.bmp	oval-vertical.bmp
17.1302428246	1.903141021700001	shape	0.670274019241	1.0	0.8	n/a	n/a	19.0333838463	19.0369739532	20.0332539082	n/a	circle.bmp	circle.bmp	oval-vertical.bmp
20.1295697689	1.9041152	shape	0.787532806396	1.0	0.8	n/a	n/a	22.0336849689	22.0371828079	23.0328829288	n/a	circle.bmp	oval-vertical.bmp	oval-vertical.bmp
23.1307849884	1.9015109539000008	shape	0.636312961578	1.0	0.8	n/a	n/a	25.0322959423	25.0360529423	26.0317897797	n/a	oval-horizontal.bmp	circle.bmp	circle.bmp
26.1295018196	1.9028069972999968	shape	0.736168861389	1.0	0.8	n/a	n/a	28.0323088169	28.0358958244	29.0317709446	n/a	oval-horizontal.bmp	oval-horizontal.bmp	circle.bmp
32.0967638493	1.935786008800001	face	0.684882879257	1.0	0.8	29.1062309742	32.0316548347	34.0325498581	34.0371689796	35.0312459469	n/a	FAZ_23.jpg	FAZ_23.jpg	FAX_43.jpg
35.1695289612	1.8622028826999968	face	0.653635978699	1.0	0.8	n/a	n/a	37.0317318439	37.0356249809	38.0315279961	n/a	26M_FE_O.jpg	26M_FE_O.jpg	27M_FE_O.BMP
38.1555378437	1.8757829665999992	face	0.703316926956	1.0	0.8	n/a	n/a	40.0313208103	40.0351428986	41.0304589272	n/a	MFX_16.jpg	MFZ_50.jpg	MFZ_50.jpg
41.1817858219	1.8500859737999988	face	0.735131025314	1.0	0.8	n/a	n/a	43.0318717957	43.0355639458	44.0300228596	n/a	09F_AN_O.jpg	09F_AN_O.jpg	10F_AN_O.jpg
44.1658678055	1.8648040293999983	face	0.569588899612	1.0	0.8	n/a	n/a	46.0306718349	46.0342757702	47.0302929878	n/a	38M_AN_O.BMP	39M_AN_O.jpg	39M_AN_O.jpg
47.1544289589	1.876713991199999	face	0.636438131332	1.0	0.8	n/a	n/a	49.0311429501	49.034735918	50.0296599865	n/a	FFZ_102.jpg	FFX_130.jpg	FFX_130.jpg
53.0676398277	1.961965084100001	shape	0.58536696434	1.0	0.8	50.1044797897	53.0295848846	55.0296049118	55.0342099667	56.028826952	n/a	oval-horizontal.bmp	oval-vertical.bmp	oval-vertical.bmp
56.1285848618	1.901108026499997	shape	0.487859964371	1.0	0.8	n/a	n/a	58.0296928883	58.033356905	59.0292248726	n/a	circle.bmp	oval-vertical.bmp	oval-vertical.bmp
59.127986908	1.9006860256000024	shape	0.486408948898	1.0	0.8	n/a	n/a	61.0286729336	61.0323169231	62.0282568932	n/a	oval-horizontal.bmp	oval-horizontal.bmp	oval-vertical.bmp
62.1292369366	1.8990938663	shape	0.48623085022	1.0	0.8	n/a	n/a	64.0283308029	64.0325908661	65.027507782	n/a	oval-horizontal.bmp	oval-horizontal.bmp	circle.bmp
65.1309258938	1.8972909450000088	shape	0.586756944656	1.0	0.8	n/a	n/a	67.0282168388	67.0319128036	68.0274479389	n/a	circle.bmp	circle.bmp	oval-vertical.bmp
68.1349418163	1.893177986200001	shape	0.486480951309	1.0	0.8	n/a	n/a	70.0281198025	70.0317189693	71.0270478725	n/a	oval-horizontal.bmp	circle.bmp	circle.bmp
74.1127460003	1.9141728877999924	face	0.666383981705	1.0	0.8	71.1040380001	74.027327776	76.0269188881	76.0316407681	77.0265769958	n/a	03F_FE_O.jpg	05F_FE_O.jpg	05F_FE_O.jpg
77.1505618095	1.876896142999996	face	0.554070949554	1.0	0.8	n/a	n/a	79.0274579525	79.031182766	80.0254228115	n/a	FAZ_32.jpg	FAZ_32.jpg	FAX_45.jpg
80.1464807987	1.880443096199997	face	0.553699970245	1.0	0.8	n/a	n/a	82.0269238949	82.030520916	83.0255599022	n/a	MAZ_128.jpg	MAZ_101.jpg	MAZ_101.jpg
83.1765527725	1.8498551846000024	face	0.553421974182	1.0	0.8	n/a	n/a	85.0264079571	85.0300228596	86.0254209042	n/a	11F_AN_O.jpg	11F_AN_O.jpg	12F_AN_O.jpg
86.1703259945	1.855460882199992	face	0.579152107239	1.0	0.8	n/a	n/a	88.0257868767	88.0294809341	89.0252649784	n/a	26M_FE_O.jpg	33M_FE_O.jpg	33M_FE_O.jpg
89.1495878696	1.8760259152000032	face	0.736022949219	1.0	0.8	n/a	n/a	91.0256137848	91.0295419693	92.0241098404	n/a	MFZ_132.jpg	MFZ_132.jpg	MFZ_120.jpg
95.062833786	1.9620251655999963	shape	0.537072896957	1.0	0.8	92.104998827	95.0244648457	97.0248589516	97.0294728279	98.0240049362	n/a	circle.bmp	oval-vertical.bmp	oval-vertical.bmp
98.1271197796	1.8973670004000096	shape	0.52064204216	1.0	0.8	n/a	n/a	100.02448678	100.028566837	101.0236938	n/a	oval-horizontal.bmp	oval-horizontal.bmp	circle.bmp
101.126452923	1.8975398540000008	shape	0.471694946289	1.0	0.8	n/a	n/a	103.023992777	103.02774477	104.024038792	n/a	oval-horizontal.bmp	oval-vertical.bmp	oval-vertical.bmp
104.127121925	1.896509886000004	shape	0.620048999786	1.0	0.8	n/a	n/a	106.023631811	106.027709961	107.023066998	n/a	oval-horizontal.bmp	circle.bmp	circle.bmp
107.127039909	1.8968780040000013	shape	0.736698150635	1.0	0.8	n/a	n/a	109.023917913	109.027601957	110.022623777	n/a	oval-horizontal.bmp	oval-horizontal.bmp	oval-vertical.bmp
110.125991821	1.897169113000004	shape	0.603402137756	1.0	0.8	n/a	n/a	112.023160934	112.027197838	113.022428989	n/a	circle.bmp	circle.bmp	oval-vertical.bmp
116.076452971	1.9462540140000044	face	0.570380926132	1.0	0.8	113.102993965	116.022689819	118.022706985	118.027616978	119.021554947	n/a	FAZ_23.jpg	FAZ_23.jpg	FAX_43.jpg
119.156356812	1.866029024	face	0.537177801132	1.0	0.8	n/a	n/a	121.022385836	121.026181936	122.021469831	n/a	26M_FE_O.jpg	26M_FE_O.jpg	27M_FE_O.BMP
122.144604921	1.8767669200000088	face	0.553308963776	1.0	0.8	n/a	n/a	124.021371841	124.025351763	125.020835876	n/a	MFZ_50.jpg	MFZ_50.jpg	MFX_16.jpg
125.175246	1.846397877000001	face	0.619817972183	1.0	0.8	n/a	n/a	127.021643877	127.025284767	128.020391941	n/a	10F_AN_O.jpg	09F_AN_O.jpg	09F_AN_O.jpg
128.156399965	1.864991904000021	face	0.567268133163	1.0	0.8	n/a	n/a	130.021391869	130.025100946	131.020516872	n/a	38M_AN_O.BMP	39M_AN_O.jpg	39M_AN_O.jpg
131.147518873	1.873770952000001	face	0.602131843567	1.0	0.8	n/a	n/a	133.021289825	133.025265932	134.020858765	n/a	FFZ_102.jpg	FFX_130.jpg	FFX_130.jpg
137.076285839	1.9605250359999784	shape	0.653553962708	1.0	0.8	134.104596853	137.036823988	139.036810875	139.041623831	140.035509825	n/a	oval-horizontal.bmp	oval-horizontal.bmp	oval-vertical.bmp
140.142290831	1.893952130999992	shape	0.586817026138	1.0	0.8	n/a	n/a	142.036242962	142.039927959	143.035689831	n/a	oval-horizontal.bmp	oval-vertical.bmp	oval-vertical.bmp
143.14406395	1.892942904999984	shape	0.637802839279	1.0	0.8	n/a	n/a	145.037006855	145.040456772	146.035560846	n/a	circle.bmp	circle.bmp	oval-vertical.bmp
146.145423889	1.8905789849999903	shape	0.490576982498	1.0	0.8	n/a	n/a	148.036002874	148.039583921	149.034963846	n/a	circle.bmp	oval-vertical.bmp	oval-vertical.bmp
149.146972895	1.8881790629999955	shape	0.5403008461	1.0	0.8	n/a	n/a	151.035151958	151.03876996	152.035377979	n/a	oval-horizontal.bmp	circle.bmp	circle.bmp
152.14038682	1.894567013	shape	0.570512056351	1.0	0.8	n/a	n/a	154.034953833	154.038875818	155.034295797	n/a	oval-horizontal.bmp	oval-horizontal.bmp	circle.bmp
158.115636826	1.9190800189999777	face	0.638566970825	0.0	0.8	155.117921829	158.033974886	160.034716845	160.039331913	161.033738852	n/a	20M_FE_O.jpg	21M_FE_O.jpg	21M_FE_O.jpg
161.186747789	1.8473629959999869	face	0.68931221962	1.0	0.8	n/a	n/a	163.034110785	163.037778854	164.033890963	n/a	01F_AN_O.jpg	07F_AN_O.jpg	07F_AN_O.jpg
164.161011934	1.872851849	face	0.686798810959	1.0	0.8	n/a	n/a	166.033863783	166.037546873	167.032837868	n/a	FFX_139.jpg	FFZ_102.jpg	FFZ_102.jpg
167.189585924	1.8444569110000089	face	0.670578956604	1.0	0.8	n/a	n/a	169.034042835	169.037635803	170.032717943	n/a	23M_AN_O.jpg	23M_AN_O.jpg	22M_AN_O.jpg
170.160976887	1.872581005000001	face	0.636772155762	1.0	0.8	n/a	n/a	172.033557892	172.036948919	173.032348871	n/a	MAZ_146.jpg	MAZ_146.jpg	MAX_233.jpg
173.190443993	1.8422589299999856	face	0.687757015228	1.0	0.8	n/a	n/a	175.032702923	175.036343813	176.032407999	n/a	15F_FE_O.jpg	15F_FE_O.jpg	16F_FE_O.jpg
179.069847822	1.9622750279999928	shape	0.720569849014	1.0	0.8	176.11853981	179.031973839	181.03212285	181.036822796	182.031292915	n/a	oval-horizontal.bmp	oval-vertical.bmp	oval-vertical.bmp
182.140875816	1.890789985999988	shape	0.570858001709	1.0	0.8	n/a	n/a	184.031665802	184.03528285	185.030903816	n/a	circle.bmp	oval-vertical.bmp	oval-vertical.bmp
185.140925884	1.89083695399998	shape	0.519081830978	1.0	0.8	n/a	n/a	187.031762838	187.035386801	188.031561852	n/a	oval-horizontal.bmp	oval-horizontal.bmp	oval-vertical.bmp
188.140792847	1.88983798000001	shape	0.603893041611	1.0	0.8	n/a	n/a	190.030630827	190.034277916	191.030941963	n/a	oval-horizontal.bmp	oval-horizontal.bmp	circle.bmp
191.145715952	1.8856208320000007	shape	0.652945041656	1.0	0.8	n/a	n/a	193.031336784	193.035129786	194.030874968	n/a	circle.bmp	circle.bmp	oval-vertical.bmp
194.145276785	1.8847131729999944	shape	0.585690975189	1.0	0.8	n/a	n/a	196.029989958	196.033783913	197.02946496	n/a	oval-horizontal.bmp	circle.bmp	circle.bmp
200.087786913	1.942128897000004	face	0.583846092224	1.0	0.8	197.116716862	200.029239893	202.02991581	202.034472942	203.029231787	n/a	FFX_54.jpg	FFX_54.jpg	FAX_51.jpg
203.174454927	1.85518694000001	face	0.633473873138	1.0	0.8	n/a	n/a	205.029641867	205.033262968	206.028814793	n/a	40M_FE_O.BMP	41M_FE_O.jpg	41M_FE_O.jpg
206.18569994	1.8440568439999936	face	0.652261972427	1.0	0.8	n/a	n/a	208.029756784	208.033929825	209.028906822	n/a	29M_AN_O.jpg	29M_AN_O.jpg	28M_AN_O.jpg
209.165695906	1.8633060450000016	face	0.617228984833	1.0	0.8	n/a	n/a	211.029001951	211.03263998	212.027867794	n/a	FFZ_18.jpg	FFZ_29.jpg	FFZ_29.jpg
212.188222885	1.840122938000008	face	0.58524107933	1.0	0.8	n/a	n/a	214.028345823	214.031983852	215.027602911	n/a	19F_AN_O.jpg	19F_AN_O.jpg	09F_AN_O.jpg
215.158142805	1.8707151409999767	face	0.604099988937	1.0	0.8	n/a	n/a	217.028857946	217.032570839	218.028197765	n/a	MFZ_132.jpg	MFZ_7.jpg	MFZ_7.jpg
221.066394806	1.9613220690000048	shape	0.552588939667	1.0	0.8	218.12022686	221.027215958	223.027716875	223.032453775	224.027509928	n/a	circle.bmp	oval-vertical.bmp	oval-vertical.bmp
224.142511845	1.884439944999997	shape	0.569621086121	1.0	0.8	n/a	n/a	226.02695179	226.030584812	227.026216984	n/a	oval-horizontal.bmp	oval-horizontal.bmp	circle.bmp
227.137041807	1.8900041580000104	shape	0.546904087067	1.0	0.8	n/a	n/a	229.027045965	229.030644894	230.02636981	n/a	oval-horizontal.bmp	oval-vertical.bmp	oval-vertical.bmp
230.140130997	1.8863208289999989	shape	0.602825164795	1.0	0.8	n/a	n/a	232.026451826	232.030495882	233.025822878	n/a	oval-horizontal.bmp	circle.bmp	circle.bmp
233.140261889	1.885634899000024	shape	0.637442111969	1.0	0.8	n/a	n/a	235.025896788	235.029622793	236.02532196	n/a	oval-horizontal.bmp	oval-horizontal.bmp	oval-vertical.bmp
236.13791585	1.888088940999978	shape	0.531670808792	1.0	0.8	n/a	n/a	238.026004791	238.029602766	239.02577281	n/a	circle.bmp	circle.bmp	oval-vertical.bmp
242.10115695	1.924118996000004	face	0.81441617012	1.0	0.8	239.116314888	242.024680853	244.025275946	244.030134916	245.024333	n/a	20M_FE_O.jpg	21M_FE_O.jpg	21M_FE_O.jpg
245.180195808	1.844674110999989	face	0.553200006485	1.0	0.8	n/a	n/a	247.024869919	247.028755903	248.023551941	n/a	07F_AN_O.jpg	07F_AN_O.jpg	01F_AN_O.jpg
248.153189898	1.871277093000004	face	0.663953065872	1.0	0.8	n/a	n/a	250.024466991	250.028099775	251.023577929	n/a	FFZ_102.jpg	FFZ_102.jpg	FFX_139.jpg
251.183776855	1.8404700760000023	face	0.645807027817	1.0	0.8	n/a	n/a	253.024246931	253.02797699	254.023193836	n/a	22M_AN_O.jpg	23M_AN_O.jpg	23M_AN_O.jpg
254.156324863	1.8670771129999928	face	0.599336862564	1.0	0.8	n/a	n/a	256.023401976	256.027168989	257.022879839	n/a	MAX_233.jpg	MAZ_146.jpg	MAZ_146.jpg
257.176143885	1.8475229740000143	face	0.653279066086	1.0	0.8	n/a	n/a	259.023666859	259.027197838	260.021871805	n/a	15F_FE_O.jpg	15F_FE_O.jpg	16F_FE_O.jpg
263.057745934	1.964367865999975	shape	0.535556077957	1.0	0.8	260.115211964	263.021761894	265.0221138	265.027157784	266.021649837	n/a	oval-horizontal.bmp	oval-horizontal.bmp	oval-vertical.bmp
266.13080287	1.8908441059999743	shape	0.494217157364	1.0	0.8	n/a	n/a	268.021646976	268.025688887	269.02141881	n/a	oval-horizontal.bmp	oval-vertical.bmp	oval-vertical.bmp
269.132577896	1.8886868950000348	shape	0.492825984955	1.0	0.8	n/a	n/a	271.021264791	271.024870872	272.02111578	n/a	circle.bmp	circle.bmp	oval-vertical.bmp
272.133580923	1.888017892999983	shape	0.511560916901	1.0	0.8	n/a	n/a	274.021598816	274.025026798	275.020413876	n/a	circle.bmp	oval-vertical.bmp	oval-vertical.bmp
275.133146763	1.904139041999997	shape	0.593039989471	1.0	0.8	n/a	n/a	277.037285805	277.040917873	278.020474911	n/a	oval-horizontal.bmp	circle.bmp	circle.bmp
278.132442951	1.904672861000052	shape	0.510542154312	1.0	0.8	n/a	n/a	280.037115812	280.040638924	281.036793947	n/a	oval-horizontal.bmp	oval-horizontal.bmp	circle.bmp
284.097357988	1.9394028190000083	face	0.576519966125	1.0	0.8	281.125261784	284.03655386	286.036760807	286.041797876	287.036221981	n/a	FFZ_18.jpg	FAZ_129.jpg	FAZ_129.jpg
287.191265821	1.8452930459999948	face	0.702794075012	1.0	0.8	n/a	n/a	289.036558867	289.040149927	290.035725832	n/a	20M_FE_O.jpg	24M_FE_O.jpg	24M_FE_O.jpg
290.163699865	1.871889114999988	face	0.526011943817	1.0	0.8	n/a	n/a	292.03558898	292.039117813	293.035237789	n/a	FAZ_23.jpg	FAX_25.jpg	FAX_25.jpg
293.190311909	1.8451819420000104	face	0.552983045578	1.0	0.8	n/a	n/a	295.035493851	295.039028883	296.034702778	n/a	33M_FE_O.jpg	33M_FE_O.jpg	35M_FE_O.jpg
296.191667795	1.8440229889999955	face	0.703775167465	1.0	0.8	n/a	n/a	298.035690784	298.039478779	299.034435987	n/a	01F_AN_O.jpg	01F_AN_O.jpg	02F_AN_O.jpg
299.168114901	1.8614330289999543	face	0.587024927139	1.0	0.8	n/a	n/a	301.02954793	301.033130884	302.029141903	n/a	MFZ_132.jpg	MFZ_132.jpg	MFZ_120.jpg
305.072227955	1.9619920249999725	shape	0.652879953384	1.0	0.8	302.121924877	305.033764839	307.03421998	307.038606882	308.033348799	n/a	oval-horizontal.bmp	oval-vertical.bmp	oval-vertical.bmp
308.147979975	1.8813300130000243	shape	0.569662809372	1.0	0.8	n/a	n/a	310.029309988	310.032880783	311.033423901	n/a	circle.bmp	oval-vertical.bmp	oval-vertical.bmp
311.146053791	1.8873891830000389	shape	0.702769994736	1.0	0.8	n/a	n/a	313.033442974	313.037048817	314.033347845	n/a	oval-horizontal.bmp	oval-horizontal.bmp	oval-vertical.bmp
314.145030975	1.8881359100000168	shape	0.473413944244	1.0	0.8	n/a	n/a	316.033166885	316.036685944	317.032860994	n/a	oval-horizontal.bmp	oval-horizontal.bmp	circle.bmp
317.149051905	1.883728026999961	shape	0.62436413765	1.0	0.8	n/a	n/a	319.032779932	319.036276817	320.032483816	n/a	circle.bmp	circle.bmp	oval-vertical.bmp
320.148570776	1.883742094000013	shape	0.540643930435	1.0	0.8	n/a	n/a	322.03231287	322.03586483	323.031881809	n/a	oval-horizontal.bmp	circle.bmp	circle.bmp
326.119992971	1.9124557979999963	face	0.773680210114	1.0	0.8	323.122918844	326.031478882	328.032448769	328.036831856	329.031214952	n/a	17F_FE_O.jpg	18F_FE_O.jpg	18F_FE_O.jpg
329.188794851	1.8428261280000129	face	0.535336017609	1.0	0.8	n/a	n/a	331.031620979	331.035163879	332.030897856	n/a	42M_AN_O.jpg	43M_AN_O.jpg	43M_AN_O.jpg
332.186856985	1.8453857899999664	face	0.72237610817	1.0	0.8	n/a	n/a	334.032242775	334.035774946	335.03112483	n/a	31M_FE_O.jpg	31M_FE_O.jpg	32M_FE_O.jpg
335.176412821	1.854987144000006	face	0.554169893265	1.0	0.8	n/a	n/a	337.031399965	337.035209894	338.030190945	n/a	FAZ_212.jpg	FFZ_236.jpg	FFZ_236.jpg
338.1987679	1.83226704599997	face	0.572371959686	1.0	0.8	n/a	n/a	340.031034946	340.034594774	341.030245781	n/a	06F_FE_O.jpg	06F_FE_O.jpg	08F_FE_O.jpg
341.168834925	1.861759901000028	face	0.520073890686	1.0	0.8	n/a	n/a	343.030594826	343.03420496	344.029818773	n/a	MAZ_128.jpg	MAZ_128.jpg	MAX_39.jpg
347.066807985	1.9635188579999865	shape	0.569723129272	1.0	0.8	344.12933898	347.029674768	349.030326843	349.03487277	350.029450893	n/a	circle.bmp	oval-vertical.bmp	oval-vertical.bmp
350.151891947	1.877881049999985	shape	0.486174106598	1.0	0.8	n/a	n/a	352.029772997	352.033699989	353.029346943	n/a	oval-horizontal.bmp	oval-horizontal.bmp	circle.bmp
353.153258801	1.875841140000034	shape	0.604187011719	1.0	0.8	n/a	n/a	355.029099941	355.032715797	356.028602839	n/a	oval-horizontal.bmp	oval-vertical.bmp	oval-vertical.bmp
356.149297953	1.8795979020000004	shape	0.519815921783	1.0	0.8	n/a	n/a	358.028895855	358.032504797	359.028651953	n/a	oval-horizontal.bmp	circle.bmp	circle.bmp
359.153500795	1.874320030999968	shape	0.486742973328	1.0	0.8	n/a	n/a	361.027820826	361.031466961	362.027257919	n/a	oval-horizontal.bmp	oval-horizontal.bmp	oval-vertical.bmp
362.151128769	1.876546143999974	shape	0.504138946533	1.0	0.8	n/a	n/a	364.027674913	364.03179884	365.027455807	n/a	circle.bmp	circle.bmp	oval-vertical.bmp
368.085740805	1.942340134999995	face	0.537086009979	1.0	0.8	365.126102924	368.027194977	370.02808094	370.032436848	371.027128935	n/a	FFZ_18.jpg	FAZ_129.jpg	FAZ_129.jpg
371.189421892	1.8384270669999976	face	0.669636011124	1.0	0.8	n/a	n/a	373.027848959	373.031499863	374.026958942	n/a	20M_FE_O.jpg	24M_FE_O.jpg	24M_FE_O.jpg
374.17098093	1.855957031999992	face	0.550534963608	1.0	0.8	n/a	n/a	376.026937962	376.031007767	377.026588917	n/a	FAZ_23.jpg	FAX_25.jpg	FAX_25.jpg
377.197676897	1.8297779559999867	face	0.638241052628	1.0	0.8	n/a	n/a	379.027454853	379.031253815	380.025959969	n/a	33M_FE_O.jpg	33M_FE_O.jpg	35M_FE_O.jpg
380.195799828	1.8308329579999736	face	0.499460935593	1.0	0.8	n/a	n/a	382.026632786	382.030281782	383.025919914	n/a	01F_AN_O.jpg	01F_AN_O.jpg	02F_AN_O.jpg
383.163068771	1.8629062180000344	face	0.520453214645	1.0	0.8	n/a	n/a	385.025974989	385.029626846	386.025171995	394.424814939	MFZ_132.jpg	MFZ_132.jpg	MFZ_120.jpg
